Trial,Spacing,Congruent,RT,Accuracy
1,unspaced,neutral,1.80933260917664,1
2,spaced,congruent,0.899219512939453,1
3,unspaced,incongruent,1.09325981140137,1
4,spaced,incongruent,1.09622120857239,1
5,unspaced,congruent,1.13801956176758,1
6,spaced,congruent,0.828820705413818,1
7,spaced,neutral,0.881051301956177,1
8,unspaced,neutral,1.13374328613281,1
9,spaced,neutral,1.06378173828125,1
10,unspaced,incongruent,1.24969172477722,1
11,unspaced,congruent,1.19336318969727,1
12,spaced,incongruent,1.43993878364563,1
13,unspaced,neutral,1.12438941001892,1
14,spaced,congruent,0.956432104110718,1
15,unspaced,neutral,1.2141797542572,1
16,unspaced,incongruent,1.10600066184998,1
17,spaced,neutral,1.71732759475708,1
18,spaced,neutral,0.9757981300354,1
19,unspaced,congruent,1.38305020332336,1
20,unspaced,incongruent,1.7098708152771,1
21,spaced,incongruent,1.69669723510742,1
22,spaced,incongruent,1.51542568206787,1
23,spaced,congruent,1.03480672836304,1
24,unspaced,congruent,1.18651056289673,1
25,unspaced,neutral,1.18975758552551,1
26,spaced,incongruent,1.44022631645203,1
27,unspaced,congruent,1.22864365577698,1
28,unspaced,incongruent,2.94390273094177,1
29,spaced,neutral,1.00946474075317,1
30,spaced,neutral,0.950857639312744,1
31,unspaced,neutral,1.20153498649597,1
32,unspaced,incongruent,2.30768394470215,1
33,unspaced,congruent,1.92115163803101,1
34,spaced,incongruent,1.01145672798157,1
35,spaced,congruent,2.19445252418518,1
36,spaced,congruent,1.09525108337402,1
37,spaced,incongruent,1.64443969726562,1
38,unspaced,incongruent,1.7612566947937,1
39,spaced,incongruent,1.64464712142944,1
40,spaced,congruent,1.09001755714417,1
41,spaced,neutral,0.900681018829346,1
42,unspaced,neutral,1.27737808227539,1
43,spaced,congruent,1.03910565376282,1
44,unspaced,congruent,1.02859473228455,1
45,unspaced,neutral,1.07315349578857,1
46,spaced,neutral,0.709821939468384,1
47,unspaced,incongruent,0.864043951034546,1
48,unspaced,congruent,1.12662363052368,1
49,unspaced,congruent,0.888919591903687,1
50,spaced,incongruent,1.39313936233521,1
51,unspaced,congruent,1.4104425907135,1
52,spaced,incongruent,0.984818935394287,1
53,unspaced,neutral,0.993854522705078,1
54,spaced,congruent,1.11210966110229,1
55,spaced,congruent,1.03437113761902,1
56,unspaced,incongruent,1.46178317070007,1
57,spaced,neutral,0.859811782836914,1
58,unspaced,neutral,0.750528812408447,1
59,spaced,neutral,1.0500226020813,1
60,unspaced,incongruent,1.3103506565094,1
1,unspaced,congruent,2.27790904045105,1
2,spaced,incongruent,0.911419153213501,1
3,spaced,incongruent,0.841538906097412,1
4,spaced,neutral,0.670418739318848,1
5,unspaced,neutral,0.821662187576294,1
6,spaced,congruent,0.919456005096436,1
7,spaced,congruent,0.852347373962402,1
8,spaced,neutral,0.814008951187134,1
9,unspaced,congruent,0.895453929901123,1
10,unspaced,neutral,0.744215250015259,1
11,unspaced,incongruent,0.946599006652832,1
12,unspaced,incongruent,1.22453141212463,1
13,spaced,congruent,0.913986921310425,1
14,spaced,incongruent,1.22088932991028,1
15,unspaced,neutral,0.826862573623657,1
16,unspaced,congruent,1.54828548431396,1
17,spaced,incongruent,1.35230183601379,1
18,spaced,neutral,1.17578434944153,1
19,unspaced,neutral,1.17245078086853,1
20,unspaced,incongruent,1.07081365585327,1
21,unspaced,congruent,1.10736441612244,1
22,spaced,neutral,1.04584050178528,1
23,unspaced,incongruent,1.17605042457581,1
24,spaced,congruent,1.7058219909668,1
25,unspaced,congruent,1.67465424537659,1
26,unspaced,neutral,1.03057932853699,1
27,unspaced,neutral,1.42734408378601,1
28,spaced,congruent,1.88535642623901,1
29,unspaced,incongruent,1.99682092666626,1
30,spaced,congruent,3.74304151535034,1
31,spaced,neutral,1.4824161529541,1
32,unspaced,congruent,1.11831140518188,1
33,spaced,incongruent,0.881142377853394,1
34,spaced,incongruent,0.995544910430908,1
35,unspaced,incongruent,1.25103950500488,1
36,spaced,neutral,1.22205638885498,1
37,spaced,congruent,1.44439435005188,1
38,spaced,neutral,0.861165046691895,1
39,spaced,congruent,1.04261994361877,1
40,unspaced,incongruent,1.18721055984497,1
41,spaced,incongruent,1.03340005874634,1
42,spaced,neutral,0.799118518829346,1
43,unspaced,congruent,1.67330145835876,1
44,spaced,incongruent,1.22637152671814,1
45,unspaced,neutral,1.45270681381226,1
46,unspaced,congruent,0.991056680679321,1
47,unspaced,incongruent,1.18252038955688,1
48,unspaced,neutral,1.05064105987549,1
49,unspaced,neutral,1.20949792861938,1
50,spaced,incongruent,0.927440404891968,1
51,spaced,neutral,1.12740850448608,1
52,spaced,neutral,0.944358825683594,1
53,unspaced,incongruent,1.28211426734924,1
54,spaced,congruent,0.976020336151123,1
55,unspaced,neutral,1.05434894561768,1
56,spaced,incongruent,0.766611576080322,1
57,unspaced,incongruent,1.20457696914673,1
58,unspaced,congruent,0.992951393127441,1
59,spaced,congruent,1.30190443992615,1
60,unspaced,congruent,1.10870575904846,1
1,unspaced,congruent,2.38474655151367,1
2,spaced,congruent,0.927417039871216,1
3,spaced,congruent,0.827227354049683,1
4,spaced,neutral,1.77106809616089,1
5,spaced,incongruent,1.00205039978027,1
6,spaced,neutral,0.753896236419678,1
7,unspaced,neutral,1.12021684646606,1
8,unspaced,congruent,1.02389430999756,1
9,unspaced,neutral,0.870758771896362,1
10,unspaced,incongruent,0.941510200500488,1
11,spaced,incongruent,1.18240809440613,1
12,unspaced,incongruent,1.04184603691101,1
13,spaced,neutral,1.11954045295715,1
14,unspaced,incongruent,1.41816639900208,1
15,unspaced,incongruent,1.41697907447815,1
16,spaced,incongruent,1.28933262825012,1
17,spaced,congruent,1.45268654823303,1
18,unspaced,congruent,0.896496534347534,1
19,spaced,congruent,1.05966520309448,1
20,spaced,incongruent,1.46273827552795,1
21,spaced,neutral,1.25051021575928,1
22,unspaced,neutral,1.24091982841492,1
23,unspaced,congruent,1.00416660308838,1
24,unspaced,neutral,1.47176551818848,1
25,unspaced,congruent,1.66248607635498,1
26,spaced,incongruent,1.35622882843018,1
27,spaced,congruent,1.3784658908844,1
28,spaced,incongruent,1.21010041236877,1
29,unspaced,neutral,1.21341443061829,1
30,spaced,neutral,1.02147150039673,1
31,unspaced,incongruent,1.34700036048889,1
32,spaced,neutral,1.36721086502075,1
33,unspaced,congruent,1.15494871139526,1
34,unspaced,neutral,0.939572334289551,1
35,spaced,congruent,1.09547185897827,1
36,unspaced,incongruent,1.06733584403992,1
37,spaced,incongruent,0.862165451049805,1
38,unspaced,incongruent,1.63511848449707,1
39,spaced,neutral,1.16029953956604,1
40,unspaced,neutral,1.11219930648804,1
41,spaced,incongruent,1.23949027061462,1
42,unspaced,congruent,1.07103157043457,1
43,unspaced,incongruent,1.29727339744568,1
44,unspaced,congruent,1.06211686134338,1
45,unspaced,neutral,0.819150686264038,1
46,spaced,congruent,1.27010464668274,1
47,spaced,neutral,3.12972569465637,1
48,spaced,congruent,1.36684560775757,1
49,unspaced,incongruent,1.50293517112732,1
50,unspaced,neutral,0.99838399887085,1
51,spaced,neutral,1.05598187446594,1
52,unspaced,incongruent,0.946718454360962,1
53,unspaced,congruent,0.900527238845825,1
54,spaced,neutral,0.67242693901062,1
55,spaced,incongruent,0.819671869277954,1
56,spaced,congruent,1.1435284614563,1
57,unspaced,neutral,0.809111356735229,1
58,spaced,congruent,0.836565971374512,1
59,unspaced,congruent,1.06202387809753,1
60,spaced,incongruent,1.00252270698547,1
1,spaced,congruent,1.27443218231201,1
2,spaced,incongruent,0.703282356262207,1
3,unspaced,congruent,0.681781768798828,1
4,unspaced,congruent,0.816567420959473,1
5,unspaced,incongruent,0.778515338897705,1
6,spaced,incongruent,1.00211071968079,1
7,unspaced,neutral,0.894251346588135,1
8,unspaced,incongruent,0.641448974609375,1
9,spaced,neutral,0.950608491897583,1
10,unspaced,neutral,0.70162558555603,1
11,spaced,congruent,1.33347344398499,1
12,spaced,neutral,0.733066320419312,1
13,spaced,incongruent,0.741474866867065,1
14,spaced,neutral,1.6367814540863,1
15,spaced,congruent,0.988492250442505,1
16,spaced,congruent,1.10736584663391,1
17,spaced,neutral,1.0438928604126,1
18,unspaced,incongruent,0.802273750305176,1
19,spaced,incongruent,0.632712364196777,1
20,unspaced,incongruent,0.714762926101685,1
21,unspaced,neutral,0.91314172744751,1
22,unspaced,neutral,0.700140237808228,1
23,unspaced,congruent,0.843680381774902,1
24,unspaced,congruent,0.969355821609497,1
25,spaced,congruent,0.982620716094971,1
26,spaced,neutral,1.10746145248413,1
27,unspaced,incongruent,0.745973348617554,1
28,spaced,incongruent,0.953501224517822,1
29,spaced,incongruent,0.813174247741699,1
30,unspaced,congruent,1.85183525085449,1
31,spaced,congruent,1.13369083404541,1
32,unspaced,congruent,0.725531578063965,1
33,unspaced,neutral,1.1876962184906,1
34,spaced,neutral,0.608035802841187,1
35,unspaced,neutral,1.17309021949768,1
36,unspaced,incongruent,0.788533687591553,1
37,unspaced,neutral,1.10703253746033,1
38,unspaced,neutral,0.801379919052124,1
39,spaced,congruent,1.28806281089783,1
40,spaced,neutral,0.864443302154541,1
41,spaced,congruent,0.982796669006348,1
42,unspaced,congruent,1.07060217857361,1
43,unspaced,congruent,1.1668689250946,1
44,spaced,incongruent,1.07335209846497,1
45,unspaced,incongruent,1.14412140846252,1
46,unspaced,incongruent,0.654581785202026,1
47,spaced,neutral,1.28269243240356,1
48,spaced,incongruent,0.949575901031494,1
49,unspaced,congruent,0.71138334274292,1
50,spaced,neutral,1.11031746864319,1
51,spaced,neutral,1.33285284042358,1
52,unspaced,incongruent,1.34016633033752,1
53,unspaced,incongruent,0.983924388885498,1
54,unspaced,neutral,0.966092109680176,1
55,unspaced,neutral,1.16745281219482,1
56,spaced,incongruent,1.14310622215271,1
57,spaced,congruent,0.911692380905151,1
58,spaced,incongruent,1.17734122276306,1
59,unspaced,congruent,0.85860800743103,1
60,spaced,congruent,1.37450766563416,1
