Trial,Spacing,Congruent,RT,Accuracy
1,unspaced,congruent,2.33081316947937,1
2,unspaced,neutral,0.72478199005127,1
3,spaced,congruent,1.27638745307922,1
4,unspaced,incongruent,1.04930138587952,1
5,unspaced,congruent,0.805877923965454,1
6,spaced,neutral,1.14291501045227,1
7,unspaced,incongruent,0.894766092300415,0
8,spaced,incongruent,0.792131423950195,0
9,spaced,incongruent,1.19432353973389,0
10,unspaced,neutral,1.57376289367676,1
11,spaced,congruent,1.40710234642029,1
12,spaced,neutral,1.04738759994507,1
13,unspaced,congruent,0.760870218276978,1
14,unspaced,incongruent,1.40388917922974,0
15,unspaced,neutral,2.33705925941467,0
16,spaced,incongruent,2.21042084693909,0
17,spaced,neutral,3.04733276367188,0
18,unspaced,neutral,2.3567910194397,1
19,unspaced,incongruent,1.43679547309875,1
20,unspaced,congruent,1.82564949989319,1
21,spaced,neutral,2.08189845085144,1
22,spaced,congruent,1.21165895462036,1
23,spaced,congruent,1.07267785072327,1
24,spaced,incongruent,0.835667848587036,1
25,unspaced,congruent,0.450387477874756,1
26,unspaced,neutral,0.101215839385986,0
27,unspaced,congruent,1.36274981498718,1
28,spaced,incongruent,2.04855012893677,1
29,spaced,incongruent,0.806422472000122,1
30,unspaced,incongruent,0.225795030593872,1
31,unspaced,neutral,3.61919903755188,1
32,spaced,congruent,0.894748449325562,1
33,spaced,neutral,1.15436410903931,1
34,spaced,neutral,1.74524855613708,1
35,spaced,congruent,1.10050249099731,1
36,unspaced,incongruent,1.08563613891602,0
37,unspaced,neutral,1.15937328338623,1
38,spaced,incongruent,1.12327718734741,0
39,unspaced,congruent,2.59360122680664,1
40,spaced,congruent,1.24905133247375,1
41,unspaced,congruent,0.981694459915161,1
42,spaced,congruent,0.677739143371582,0
43,unspaced,incongruent,1.28216171264648,0
44,spaced,incongruent,4.18578934669495,1
45,unspaced,neutral,1.21287202835083,1
46,unspaced,incongruent,1.27914142608643,0
47,spaced,neutral,0.755225419998169,1
48,spaced,neutral,1.2668125629425,1
49,spaced,neutral,1.98740386962891,0
50,unspaced,congruent,1.83339214324951,1
51,spaced,neutral,1.71623039245605,1
52,unspaced,neutral,1.24780654907227,1
53,spaced,incongruent,2.51555824279785,1
54,unspaced,congruent,0.862737655639648,1
55,spaced,congruent,1.90941834449768,1
56,unspaced,neutral,1.14734745025635,1
57,unspaced,incongruent,1.14333057403564,0
58,unspaced,incongruent,1.39140295982361,0
59,spaced,congruent,1.1969153881073,1
60,spaced,incongruent,2.91634893417358,0
1,spaced,congruent,1.91937065124512,1
2,unspaced,neutral,0.769570112228394,1
3,spaced,incongruent,0.932128190994263,0
4,unspaced,neutral,1.5936541557312,1
5,unspaced,congruent,0.939394950866699,1
6,unspaced,congruent,0.720484972000122,1
7,spaced,incongruent,0.516546964645386,0
8,spaced,neutral,1.91283917427063,1
9,spaced,neutral,0.547252178192139,1
10,spaced,congruent,1.794588804245,1
11,unspaced,incongruent,17.5605413913727,1
12,unspaced,incongruent,6.40020179748535,0
13,spaced,neutral,1.6131227016449,1
14,spaced,congruent,1.02427744865417,1
15,unspaced,congruent,1.5095202922821,1
16,spaced,incongruent,1.39898896217346,1
17,unspaced,neutral,1.27798414230347,1
18,unspaced,incongruent,1.93940687179565,0
19,spaced,incongruent,1.49323868751526,0
20,unspaced,neutral,2.14648962020874,0
21,unspaced,incongruent,0.0795166492462158,1
22,spaced,congruent,1.46742701530457,1
23,unspaced,congruent,0.960697174072266,1
24,spaced,neutral,0.977052211761475,1
25,unspaced,congruent,1.37645888328552,1
26,spaced,neutral,0.630286693572998,0
27,spaced,incongruent,1.42938470840454,1
28,unspaced,congruent,2.5793879032135,1
29,spaced,incongruent,6.83511137962341,0
30,spaced,congruent,2.903480052948,1
31,spaced,congruent,1.48505210876465,1
32,spaced,neutral,1.50805878639221,0
33,unspaced,incongruent,13.6040644645691,0
34,unspaced,neutral,0.479915380477905,1
35,unspaced,neutral,0.956204652786255,0
36,unspaced,incongruent,0.0146708488464355,1
37,unspaced,neutral,0.890182495117188,1
38,spaced,neutral,2.18449640274048,1
39,unspaced,neutral,1.10063362121582,1
40,spaced,incongruent,9.78211975097656,0
41,spaced,neutral,3.69158339500427,1
42,unspaced,incongruent,4.04278612136841,0
43,unspaced,congruent,5.68563556671143,1
44,spaced,congruent,2.68951916694641,1
45,spaced,congruent,2.02109313011169,1
46,unspaced,incongruent,2.09845638275146,1
47,unspaced,congruent,2.69815278053284,1
48,spaced,incongruent,13.239196062088,1
49,spaced,incongruent,10.5119254589081,0
50,unspaced,neutral,1.50790500640869,0
51,unspaced,incongruent,10.0950667858124,0
52,spaced,incongruent,8.02789688110352,1
53,unspaced,congruent,2.26438570022583,1
54,spaced,congruent,1.55714893341064,1
55,unspaced,neutral,0.977364540100098,1
56,unspaced,congruent,1.23717308044434,1
57,unspaced,incongruent,10.0464217662811,0
58,spaced,neutral,2.5207245349884,1
59,spaced,congruent,3.41551375389099,1
60,spaced,neutral,2.18492579460144,1
1,unspaced,incongruent,4.0876829624176,0
2,unspaced,neutral,1.83824276924133,1
3,unspaced,neutral,1.76046633720398,1
4,spaced,incongruent,8.23883485794067,0
5,unspaced,congruent,2.07284688949585,1
6,spaced,neutral,1.71921110153198,1
7,spaced,neutral,1.37029051780701,1
8,spaced,incongruent,1.18535447120667,1
9,unspaced,incongruent,0.86191987991333,1
10,unspaced,congruent,0.547900915145874,1
11,spaced,congruent,0.460105895996094,0
12,spaced,congruent,0.399553775787354,0
13,unspaced,congruent,1.31644558906555,1
14,spaced,incongruent,0.520355463027954,0
15,spaced,neutral,0.755201578140259,0
16,spaced,incongruent,0.568106412887573,0
17,unspaced,incongruent,0.456862926483154,1
18,spaced,neutral,0.399139642715454,1
19,unspaced,neutral,0.412892818450928,1
20,unspaced,incongruent,0.272788524627686,0
21,unspaced,neutral,1.45277976989746,1
22,spaced,congruent,0.514308929443359,0
23,unspaced,congruent,0.852672338485718,1
24,spaced,congruent,2.00039768218994,1
25,spaced,neutral,3.94667983055115,1
26,spaced,incongruent,1.89510345458984,0
27,unspaced,neutral,3.50735855102539,1
28,spaced,congruent,2.27938890457153,1
29,unspaced,congruent,0.511687517166138,0
30,spaced,incongruent,1.15604853630066,0
31,unspaced,incongruent,1.04312014579773,0
32,unspaced,congruent,1.53648781776428,1
33,spaced,congruent,1.56410455703735,1
34,spaced,neutral,1.1572048664093,1
35,unspaced,incongruent,2.20462799072266,0
36,unspaced,neutral,1.35390543937683,1
37,spaced,incongruent,1.19270992279053,0
38,unspaced,neutral,3.623694896698,1
39,spaced,congruent,1.05416655540466,1
40,spaced,incongruent,1.02650451660156,1
41,unspaced,congruent,0.912578105926514,1
42,spaced,neutral,1.13361406326294,1
43,unspaced,neutral,0.942297220230103,1
44,unspaced,congruent,0.829354047775269,1
45,spaced,congruent,0.909438133239746,1
46,spaced,neutral,0.907092571258545,1
47,unspaced,incongruent,1.4010009765625,0
48,unspaced,incongruent,5.77380800247192,1
49,spaced,congruent,3.33138465881348,1
50,unspaced,congruent,4.13142204284668,1
51,spaced,incongruent,1.46244072914124,1
52,unspaced,neutral,1.21162700653076,1
53,unspaced,neutral,1.09060025215149,1
54,spaced,neutral,0.746565341949463,1
55,unspaced,congruent,1.4786651134491,1
56,unspaced,incongruent,1.1604950428009,1
57,spaced,congruent,1.40847420692444,0
58,spaced,incongruent,6.74415707588196,0
59,unspaced,incongruent,0.976588010787964,1
60,spaced,neutral,2.22241878509521,1
1,spaced,congruent,1.0927906036377,1
2,unspaced,congruent,0.967527151107788,1
3,spaced,neutral,0.986470460891724,1
4,unspaced,neutral,0.926788330078125,1
5,spaced,neutral,1.06750273704529,1
6,spaced,incongruent,1.32570290565491,1
7,spaced,congruent,1.20782923698425,1
8,unspaced,incongruent,0.939258575439453,0
9,unspaced,congruent,0.748553276062012,1
10,unspaced,incongruent,0.802075147628784,1
11,unspaced,neutral,1.93250703811646,1
12,spaced,incongruent,2.35133957862854,0
13,spaced,incongruent,1.1057755947113,0
14,unspaced,neutral,0.512640953063965,0
15,unspaced,congruent,1.13571166992188,1
16,spaced,neutral,0.959721326828003,1
17,spaced,congruent,1.03714942932129,1
18,unspaced,neutral,1.16409301757812,1
19,unspaced,incongruent,1.07782411575317,1
20,unspaced,incongruent,0.946974515914917,0
21,spaced,neutral,1.13093328475952,1
22,unspaced,congruent,1.23790431022644,1
23,spaced,congruent,1.69604873657227,1
24,spaced,incongruent,6.13206768035889,0
25,spaced,neutral,0.385369062423706,0
26,unspaced,neutral,1.43437194824219,1
27,unspaced,congruent,1.07466340065002,1
28,unspaced,neutral,0.747717380523682,1
29,unspaced,incongruent,0.768304347991943,0
30,unspaced,congruent,1.81214022636414,1
31,spaced,congruent,0.875129222869873,1
32,unspaced,incongruent,1.31045746803284,0
33,spaced,neutral,1.02477431297302,1
34,spaced,incongruent,3.33522844314575,0
35,spaced,congruent,2.01729583740234,1
36,spaced,incongruent,6.00734305381775,0
37,unspaced,incongruent,0.836769104003906,0
38,spaced,congruent,0.441649913787842,1
39,unspaced,neutral,0.726970911026001,1
40,unspaced,incongruent,0.9034583568573,0
41,unspaced,neutral,0.115461111068726,1
42,spaced,incongruent,1.58289837837219,0
43,spaced,neutral,1.50426292419434,1
44,spaced,incongruent,2.04610180854797,1
45,unspaced,congruent,1.35446047782898,1
46,unspaced,congruent,1.53528380393982,1
47,spaced,congruent,1.31172466278076,1
48,spaced,neutral,1.24221587181091,1
49,unspaced,incongruent,2.15821194648743,1
50,unspaced,neutral,1.63698029518127,1
51,spaced,incongruent,1.67834663391113,0
52,spaced,neutral,2.44659376144409,1
53,spaced,congruent,3.16200137138367,1
54,spaced,congruent,1.34102272987366,1
55,unspaced,neutral,1.25876641273499,1
56,unspaced,congruent,1.51266288757324,1
57,unspaced,incongruent,5.38111281394958,1
58,spaced,neutral,1.35573363304138,1
59,unspaced,congruent,2.26747179031372,1
60,spaced,incongruent,2.93725633621216,1
