Trial,Spacing,Congruent,RT,Accuracy
1,unspaced,congruent,3.61597204208374,1
2,unspaced,incongruent,0.750949859619141,1
3,spaced,neutral,0.904979467391968,1
4,spaced,incongruent,0.770550489425659,1
5,spaced,neutral,1.18095445632935,1
6,unspaced,congruent,0.604452848434448,1
7,spaced,incongruent,0.6831374168396,1
8,unspaced,incongruent,2.150954246521,0
9,unspaced,neutral,0.919703960418701,1
10,spaced,congruent,0.600680589675903,1
11,unspaced,neutral,0.771392822265625,1
12,spaced,congruent,0.532943248748779,1
13,unspaced,neutral,0.686545610427856,1
14,spaced,neutral,0.609416007995605,1
15,unspaced,congruent,0.691283464431763,1
16,spaced,incongruent,0.555917024612427,1
17,spaced,incongruent,0.756228446960449,1
18,unspaced,congruent,0.609757661819458,1
19,unspaced,incongruent,0.804167509078979,1
20,unspaced,neutral,0.740334272384644,1
21,unspaced,incongruent,0.804102897644043,1
22,spaced,neutral,0.722308397293091,1
23,spaced,congruent,0.638345718383789,1
24,spaced,congruent,0.714642763137817,1
25,spaced,incongruent,0.596826076507568,1
26,unspaced,incongruent,0.995318412780762,1
27,spaced,neutral,0.699193477630615,1
28,spaced,neutral,0.657156229019165,1
29,spaced,congruent,0.694480895996094,1
30,unspaced,neutral,1.05058741569519,1
31,unspaced,congruent,0.622546434402466,1
32,unspaced,congruent,0.659141302108765,1
33,spaced,congruent,0.707476854324341,1
34,unspaced,neutral,0.590309619903564,1
35,spaced,incongruent,0.597129821777344,1
36,unspaced,incongruent,0.787776708602905,1
37,unspaced,incongruent,0.651540517807007,1
38,spaced,incongruent,0.675503969192505,1
39,unspaced,incongruent,0.815101385116577,1
40,unspaced,congruent,0.717279434204102,1
41,spaced,congruent,0.71991229057312,1
42,spaced,incongruent,0.724677085876465,1
43,unspaced,neutral,0.610419750213623,1
44,spaced,neutral,0.624974727630615,1
45,unspaced,congruent,0.762976408004761,1
46,unspaced,neutral,0.682865858078003,1
47,spaced,congruent,0.574640989303589,1
48,spaced,neutral,0.467730760574341,1
49,spaced,incongruent,0.59351372718811,1
50,spaced,incongruent,0.422860860824585,1
51,unspaced,incongruent,0.603337049484253,1
52,spaced,congruent,0.481243371963501,1
53,unspaced,congruent,0.57330846786499,1
54,spaced,neutral,0.461187362670898,1
55,unspaced,neutral,0.649316310882568,1
56,spaced,neutral,0.783651351928711,1
57,spaced,congruent,0.772863626480103,1
58,unspaced,incongruent,0.693883419036865,1
59,unspaced,congruent,0.663388967514038,1
60,unspaced,neutral,0.584742069244385,1
1,unspaced,incongruent,1.39327955245972,1
2,spaced,neutral,0.503349304199219,1
3,spaced,neutral,0.696973085403442,1
4,spaced,congruent,0.987101316452026,1
5,unspaced,congruent,0.58833122253418,1
6,unspaced,neutral,0.594174861907959,1
7,unspaced,neutral,0.585431098937988,1
8,unspaced,incongruent,0.846778154373169,1
9,spaced,incongruent,0.877381563186646,1
10,spaced,congruent,0.850403785705566,1
11,unspaced,congruent,0.951684236526489,1
12,spaced,incongruent,0.45330548286438,1
13,unspaced,congruent,0.740346670150757,1
14,unspaced,neutral,0.619992971420288,1
15,unspaced,incongruent,0.787886619567871,1
16,unspaced,neutral,0.758752584457397,1
17,spaced,incongruent,0.616921186447144,1
18,spaced,neutral,0.516349792480469,1
19,unspaced,incongruent,0.515812635421753,0
20,spaced,neutral,1.60441780090332,1
21,spaced,congruent,0.639874696731567,1
22,spaced,incongruent,0.748536825180054,1
23,unspaced,congruent,0.711652994155884,1
24,spaced,congruent,0.649382591247559,1
25,spaced,neutral,0.49592137336731,1
26,spaced,congruent,0.351521730422974,1
27,spaced,neutral,0.735948324203491,1
28,unspaced,incongruent,1.13333988189697,1
29,unspaced,congruent,0.595586538314819,0
30,unspaced,incongruent,0.770837783813477,1
31,spaced,incongruent,0.574383974075317,1
32,unspaced,congruent,0.642844676971436,1
33,spaced,incongruent,0.763430833816528,1
34,unspaced,neutral,0.84846019744873,1
35,spaced,congruent,1.18767261505127,1
36,unspaced,neutral,0.958091259002686,1
37,unspaced,congruent,0.629126071929932,1
38,unspaced,congruent,0.581628084182739,1
39,unspaced,incongruent,0.741502285003662,1
40,unspaced,neutral,0.804695129394531,1
41,spaced,incongruent,0.658886909484863,1
42,spaced,neutral,0.668540954589844,1
43,unspaced,neutral,0.635132789611816,1
44,spaced,neutral,0.472415208816528,1
45,unspaced,incongruent,0.979937076568604,1
46,spaced,congruent,0.745171070098877,1
47,spaced,congruent,0.676860570907593,1
48,spaced,incongruent,0.770319938659668,1
49,unspaced,congruent,0.782276391983032,1
50,spaced,incongruent,0.600350379943848,1
51,unspaced,congruent,0.670591115951538,1
52,spaced,congruent,0.666096210479736,1
53,spaced,neutral,0.524438619613647,1
54,spaced,congruent,0.694137811660767,1
55,unspaced,incongruent,0.653101682662964,1
56,spaced,incongruent,0.600405216217041,1
57,unspaced,neutral,0.631813049316406,1
58,spaced,neutral,0.541794538497925,1
59,unspaced,incongruent,0.86736798286438,1
60,unspaced,neutral,0.750418663024902,1
1,unspaced,neutral,3.74693894386292,1
2,unspaced,incongruent,2.36942291259766,1
3,spaced,congruent,0.694163799285889,1
4,unspaced,incongruent,1.64402961730957,1
5,unspaced,congruent,0.62410306930542,1
6,spaced,neutral,0.528825521469116,1
7,unspaced,congruent,0.653881072998047,1
8,unspaced,neutral,0.597651958465576,1
9,spaced,neutral,0.683907032012939,1
10,spaced,incongruent,0.724876642227173,1
11,spaced,incongruent,0.54215931892395,1
12,spaced,congruent,0.804441690444946,1
13,spaced,incongruent,0.575803756713867,1
14,spaced,congruent,0.664493560791016,1
15,unspaced,neutral,0.76682186126709,1
16,unspaced,incongruent,1.30657052993774,1
17,spaced,neutral,1.07051157951355,1
18,spaced,congruent,0.636350631713867,1
19,unspaced,congruent,0.798948526382446,1
20,unspaced,neutral,0.66508150100708,1
21,unspaced,incongruent,0.956135511398315,1
22,spaced,neutral,0.66146445274353,1
23,spaced,incongruent,0.673435688018799,1
24,unspaced,congruent,0.548749685287476,1
25,spaced,congruent,0.859910488128662,1
26,spaced,neutral,0.691286563873291,1
27,spaced,neutral,0.602584362030029,0
28,spaced,incongruent,0.769344806671143,0
29,unspaced,neutral,1.44140982627869,1
30,unspaced,incongruent,0.704402446746826,1
31,unspaced,neutral,0.779822111129761,1
32,unspaced,incongruent,0.673357009887695,1
33,unspaced,congruent,0.590916633605957,1
34,unspaced,congruent,0.630211353302002,1
35,spaced,congruent,0.839362144470215,1
36,spaced,incongruent,0.709529161453247,1
37,unspaced,congruent,1.34429740905762,1
38,spaced,congruent,0.667936563491821,1
39,spaced,neutral,0.512584686279297,1
40,unspaced,congruent,0.72719669342041,1
41,spaced,congruent,0.762973546981812,1
42,spaced,incongruent,0.635058164596558,1
43,unspaced,incongruent,1.53579807281494,1
44,spaced,incongruent,1.33624196052551,1
45,unspaced,incongruent,0.744118213653564,1
46,unspaced,neutral,1.11621952056885,1
47,spaced,neutral,0.647313117980957,1
48,unspaced,neutral,0.789592266082764,1
49,unspaced,incongruent,1.91406893730164,1
50,spaced,incongruent,0.683791160583496,1
51,unspaced,neutral,1.03992748260498,1
52,unspaced,congruent,1.15588092803955,1
53,spaced,neutral,0.76483154296875,1
54,spaced,congruent,0.734436511993408,1
55,spaced,congruent,0.777001619338989,1
56,spaced,incongruent,0.899750947952271,1
57,unspaced,congruent,0.842386245727539,1
58,unspaced,incongruent,0.587095022201538,1
59,unspaced,neutral,0.766878843307495,1
60,spaced,neutral,0.692560911178589,1
1,unspaced,neutral,4.21773838996887,1
2,unspaced,incongruent,0.764507055282593,1
3,spaced,neutral,0.916634082794189,1
4,spaced,incongruent,0.791430473327637,1
5,spaced,congruent,0.738546848297119,1
6,unspaced,congruent,0.898594856262207,1
7,spaced,congruent,0.761985540390015,1
8,spaced,incongruent,0.650152206420898,1
9,unspaced,congruent,0.850937366485596,1
10,unspaced,neutral,0.740170478820801,1
11,unspaced,incongruent,0.7254638671875,1
12,spaced,neutral,0.846229791641235,1
13,spaced,neutral,0.667321920394897,1
14,unspaced,neutral,0.680805206298828,1
15,spaced,incongruent,0.697954416275024,1
16,spaced,congruent,0.737058401107788,1
17,unspaced,incongruent,0.783946990966797,1
18,unspaced,congruent,0.664760828018188,1
19,unspaced,congruent,0.698546409606934,1
20,spaced,congruent,0.758904933929443,1
21,unspaced,neutral,0.769466400146484,1
22,spaced,incongruent,0.769839763641357,1
23,unspaced,incongruent,1.40979385375977,1
24,spaced,neutral,0.62233829498291,1
25,spaced,neutral,0.733402490615845,1
26,spaced,incongruent,0.853839635848999,1
27,unspaced,neutral,0.770077228546143,1
28,spaced,neutral,0.787569999694824,1
29,spaced,incongruent,0.792725801467896,1
30,unspaced,incongruent,0.742504596710205,1
31,spaced,congruent,0.688824415206909,1
32,spaced,congruent,1.2903037071228,1
33,unspaced,congruent,0.68930983543396,1
34,unspaced,congruent,0.72380542755127,1
35,unspaced,neutral,0.677178621292114,1
36,unspaced,incongruent,0.839289665222168,1
37,unspaced,congruent,0.716767549514771,1
38,unspaced,incongruent,0.831691026687622,1
39,unspaced,neutral,0.602949619293213,1
40,unspaced,neutral,0.50114369392395,1
41,unspaced,congruent,0.60698127746582,1
42,spaced,neutral,0.578813552856445,1
43,unspaced,incongruent,0.530494928359985,1
44,spaced,incongruent,0.647104263305664,1
45,spaced,congruent,0.80517053604126,1
46,spaced,incongruent,0.747338533401489,1
47,spaced,congruent,1.14418244361877,1
48,spaced,neutral,0.806223392486572,1
49,unspaced,neutral,0.777443408966064,1
50,unspaced,congruent,1.09465098381042,1
51,unspaced,neutral,0.773280382156372,1
52,spaced,neutral,1.2417938709259,1
53,unspaced,incongruent,1.94305229187012,1
54,spaced,incongruent,0.795161485671997,1
55,spaced,neutral,0.743109703063965,1
56,spaced,congruent,0.699110984802246,1
57,spaced,incongruent,0.622418642044067,1
58,spaced,congruent,0.804150581359863,1
59,unspaced,congruent,0.871187210083008,1
60,unspaced,incongruent,1.18688154220581,1
