Trial,Spacing,Congruent,RT,Accuracy
1,spaced,incongruent,0.978981018066406,1
2,unspaced,congruent,0.573437929153442,1
3,unspaced,incongruent,0.626675605773926,1
4,unspaced,congruent,0.72337007522583,1
5,spaced,congruent,0.524089097976685,1
6,unspaced,neutral,0.514807939529419,1
7,spaced,neutral,0.676851749420166,1
8,spaced,congruent,0.719841957092285,1
9,spaced,incongruent,0.469606161117554,1
10,unspaced,neutral,0.648358106613159,1
11,spaced,neutral,0.614011526107788,1
12,unspaced,incongruent,0.722987174987793,1
13,unspaced,congruent,0.667758941650391,1
14,unspaced,neutral,0.504066467285156,1
15,unspaced,neutral,0.532116413116455,1
16,unspaced,incongruent,0.661213397979736,1
17,unspaced,congruent,0.473828554153442,1
18,spaced,incongruent,0.414077997207642,1
19,spaced,congruent,0.550558090209961,1
20,spaced,congruent,0.446986198425293,1
21,spaced,neutral,0.465731143951416,1
22,unspaced,incongruent,0.710936784744263,1
23,spaced,neutral,0.570008754730225,1
24,spaced,incongruent,0.41053318977356,1
25,unspaced,congruent,0.479639053344727,1
26,spaced,incongruent,0.527831077575684,1
27,unspaced,neutral,0.469483375549316,1
28,unspaced,congruent,0.472174882888794,1
29,unspaced,neutral,0.500282526016235,1
30,spaced,neutral,0.483965396881104,1
31,spaced,incongruent,0.590433359146118,1
32,spaced,congruent,0.609186172485352,1
33,spaced,neutral,0.510774612426758,1
34,unspaced,incongruent,0.603311538696289,1
35,unspaced,incongruent,0.536185026168823,1
36,spaced,congruent,0.554956197738647,1
37,spaced,congruent,0.500610828399658,1
38,spaced,neutral,0.515734195709229,1
39,unspaced,congruent,0.525054931640625,1
40,spaced,incongruent,0.622300624847412,1
41,spaced,congruent,0.524531602859497,1
42,unspaced,incongruent,0.672878265380859,1
43,unspaced,neutral,0.521219253540039,1
44,unspaced,incongruent,0.836166620254517,1
45,spaced,neutral,0.556699752807617,1
46,spaced,incongruent,0.569518089294434,1
47,unspaced,neutral,0.562241792678833,1
48,unspaced,congruent,0.481091976165771,1
49,spaced,congruent,0.524609327316284,1
50,unspaced,congruent,0.576202154159546,1
51,unspaced,incongruent,0.66161322593689,1
52,spaced,neutral,0.619561195373535,1
53,unspaced,incongruent,0.625107288360596,1
54,spaced,congruent,0.506888389587402,1
55,unspaced,neutral,0.578607797622681,1
56,spaced,incongruent,0.603536367416382,1
57,spaced,neutral,0.519528150558472,1
58,unspaced,congruent,0.516748905181885,1
59,spaced,incongruent,0.483990907669067,1
60,unspaced,neutral,0.575058460235596,1
1,unspaced,congruent,0.947017669677734,1
2,spaced,incongruent,6.95700621604919,1
3,spaced,neutral,1.12068605422974,1
4,spaced,congruent,1.58564734458923,1
5,spaced,congruent,4.85225176811218,1
6,unspaced,congruent,3.22196245193481,1
7,unspaced,incongruent,0.582574129104614,1
8,unspaced,incongruent,0.85986852645874,1
9,spaced,incongruent,0.673290491104126,1
10,unspaced,neutral,0.554263114929199,1
11,unspaced,neutral,0.486565828323364,1
12,spaced,neutral,0.461551904678345,1
13,unspaced,neutral,0.46182656288147,1
14,spaced,incongruent,0.445633172988892,1
15,unspaced,congruent,0.42214298248291,1
16,unspaced,incongruent,0.641699075698853,1
17,unspaced,neutral,0.513768196105957,1
18,spaced,congruent,0.648723602294922,1
19,spaced,incongruent,0.488577604293823,1
20,spaced,neutral,0.511993408203125,1
21,unspaced,congruent,0.530049324035645,1
22,spaced,neutral,1.09451699256897,1
23,unspaced,incongruent,0.650630950927734,1
24,spaced,congruent,0.628587484359741,1
25,spaced,congruent,0.71597146987915,1
26,unspaced,neutral,0.596344709396362,1
27,spaced,neutral,0.490597248077393,1
28,unspaced,congruent,0.472725391387939,1
29,unspaced,neutral,0.481855392456055,1
30,spaced,incongruent,0.492508172988892,1
31,unspaced,congruent,0.611114025115967,1
32,unspaced,incongruent,0.858133554458618,1
33,spaced,congruent,0.565449714660645,1
34,spaced,incongruent,0.554397583007812,1
35,unspaced,incongruent,0.498530387878418,1
36,spaced,neutral,0.409446477890015,1
37,spaced,incongruent,0.550139427185059,1
38,unspaced,neutral,0.896253347396851,1
39,unspaced,incongruent,0.85574746131897,1
40,unspaced,congruent,0.58857536315918,1
41,unspaced,congruent,0.815844297409058,1
42,spaced,neutral,0.492933511734009,1
43,unspaced,neutral,0.951277017593384,1
44,spaced,neutral,0.728659391403198,1
45,unspaced,incongruent,0.651254415512085,1
46,spaced,congruent,0.560322046279907,1
47,spaced,congruent,0.881445646286011,1
48,spaced,incongruent,0.689215421676636,1
49,spaced,congruent,0.734452247619629,1
50,unspaced,congruent,0.9781494140625,1
51,spaced,neutral,0.785765171051025,1
52,spaced,incongruent,0.673934698104858,1
53,unspaced,neutral,0.636996030807495,1
54,spaced,congruent,0.569653034210205,1
55,spaced,neutral,0.470137119293213,0
56,unspaced,congruent,1.0131139755249,1
57,spaced,incongruent,0.567839384078979,1
58,unspaced,incongruent,0.595563650131226,1
59,unspaced,incongruent,0.648842096328735,1
60,unspaced,neutral,0.516454219818115,1
1,spaced,congruent,1.7196958065033,1
2,unspaced,neutral,0.521018743515015,1
3,spaced,neutral,0.665733337402344,1
4,unspaced,incongruent,0.833549737930298,1
5,unspaced,neutral,0.501074075698853,1
6,spaced,incongruent,8.59329175949097,1
7,spaced,congruent,0.567496299743652,1
8,spaced,incongruent,0.530545949935913,1
9,unspaced,incongruent,0.613699436187744,1
10,spaced,neutral,0.404110193252563,1
11,unspaced,congruent,0.660961866378784,1
12,unspaced,congruent,0.447667598724365,1
13,unspaced,congruent,0.486234426498413,1
14,unspaced,incongruent,0.582987785339355,1
15,unspaced,congruent,0.717348337173462,1
16,spaced,incongruent,0.811383724212646,1
17,unspaced,neutral,0.730033397674561,1
18,spaced,congruent,0.55060338973999,1
19,spaced,neutral,0.585053443908691,1
20,spaced,neutral,0.563119173049927,1
21,spaced,congruent,0.610131740570068,1
22,unspaced,incongruent,0.672696828842163,1
23,unspaced,neutral,0.523991584777832,1
24,spaced,incongruent,0.639533519744873,1
25,spaced,congruent,0.719825029373169,1
26,spaced,congruent,0.660490036010742,1
27,spaced,neutral,0.525691270828247,1
28,unspaced,incongruent,0.619463205337524,1
29,unspaced,congruent,0.50177001953125,1
30,unspaced,neutral,0.512789011001587,1
31,unspaced,congruent,0.484702825546265,1
32,spaced,incongruent,0.474781513214111,1
33,spaced,incongruent,0.413105010986328,1
34,unspaced,neutral,0.456955671310425,1
35,unspaced,incongruent,0.640801429748535,1
36,spaced,neutral,0.436256647109985,1
37,spaced,incongruent,0.407189607620239,1
38,unspaced,congruent,0.546271324157715,1
39,unspaced,neutral,0.608797073364258,1
40,spaced,neutral,0.671473503112793,1
41,spaced,congruent,0.483717918395996,1
42,spaced,incongruent,0.447607278823853,1
43,unspaced,incongruent,0.633365154266357,1
44,spaced,congruent,0.487044334411621,1
45,unspaced,incongruent,0.558356761932373,1
46,unspaced,neutral,0.434818744659424,1
47,spaced,neutral,0.41252589225769,1
48,unspaced,congruent,0.648930072784424,0
49,spaced,neutral,0.880198240280151,1
50,spaced,incongruent,0.575288772583008,1
51,spaced,congruent,0.291638851165771,1
52,unspaced,congruent,0.58927059173584,1
53,spaced,neutral,0.524238109588623,1
54,spaced,incongruent,0.469361305236816,1
55,unspaced,neutral,0.537219762802124,1
56,unspaced,incongruent,1.50022077560425,1
57,unspaced,incongruent,0.748607397079468,1
58,spaced,congruent,0.440177202224731,1
59,unspaced,congruent,0.458189964294434,1
60,unspaced,neutral,0.446885108947754,1
1,spaced,incongruent,0.902435064315796,1
2,spaced,congruent,0.514312505722046,1
3,unspaced,incongruent,0.508233308792114,1
4,unspaced,neutral,0.402556180953979,1
5,spaced,congruent,0.455003976821899,1
6,spaced,neutral,0.450821399688721,1
7,spaced,incongruent,0.327492475509644,0
8,unspaced,neutral,0.618082046508789,1
9,unspaced,congruent,0.476457595825195,1
10,unspaced,congruent,0.411207437515259,1
11,spaced,neutral,0.512890815734863,1
12,unspaced,incongruent,0.531507015228271,1
13,spaced,incongruent,0.476282835006714,1
14,spaced,congruent,0.38221287727356,1
15,spaced,incongruent,0.662471532821655,1
16,unspaced,incongruent,0.571380615234375,1
17,unspaced,incongruent,0.637024879455566,1
18,spaced,neutral,0.569990396499634,1
19,spaced,neutral,0.545088529586792,1
20,spaced,congruent,0.448907852172852,1
21,unspaced,congruent,0.477895259857178,1
22,unspaced,neutral,0.691104173660278,1
23,unspaced,neutral,0.471435308456421,1
24,unspaced,congruent,0.520211458206177,1
25,spaced,congruent,0.620697498321533,1
26,unspaced,incongruent,0.561376810073853,1
27,spaced,incongruent,0.644069671630859,1
28,unspaced,congruent,0.43375301361084,1
29,spaced,incongruent,0.589631795883179,1
30,unspaced,congruent,0.559883594512939,1
31,unspaced,incongruent,0.502808570861816,1
32,spaced,congruent,0.449936628341675,1
33,spaced,neutral,0.471431016921997,1
34,spaced,neutral,0.353551387786865,1
35,unspaced,neutral,0.432095289230347,1
36,unspaced,neutral,0.487780094146729,1
37,unspaced,neutral,0.354606628417969,1
38,spaced,incongruent,0.377829313278198,0
39,unspaced,neutral,0.593759059906006,1
40,spaced,congruent,0.479621648788452,1
41,unspaced,incongruent,0.541967153549194,1
42,spaced,incongruent,0.559282302856445,1
43,unspaced,congruent,0.491754531860352,1
44,spaced,congruent,0.472423553466797,1
45,unspaced,congruent,0.395903825759888,1
46,unspaced,incongruent,0.658813238143921,1
47,spaced,neutral,0.723328113555908,1
48,spaced,neutral,0.909509181976318,1
49,unspaced,congruent,1.263587474823,1
50,spaced,congruent,0.626584053039551,1
51,unspaced,incongruent,1.57465410232544,1
52,spaced,congruent,0.47978949546814,1
53,spaced,incongruent,0.672451257705688,1
54,spaced,incongruent,0.492420196533203,1
55,spaced,neutral,0.610406160354614,1
56,unspaced,incongruent,0.576356887817383,1
57,spaced,neutral,0.457747936248779,1
58,unspaced,neutral,0.526230573654175,1
59,unspaced,neutral,0.539988994598389,1
60,unspaced,congruent,0.532566547393799,1
