Trial,Spacing,Congruent,RT,Accuracy
1,unspaced,incongruent,1.13371777534485,1
2,spaced,congruent,0.543782949447632,1
3,spaced,neutral,0.55473518371582,1
4,spaced,incongruent,0.670899152755737,1
5,spaced,incongruent,0.543858766555786,1
6,unspaced,incongruent,0.783914804458618,1
7,spaced,congruent,0.469784021377563,1
8,spaced,neutral,0.552707433700562,1
9,unspaced,congruent,0.442323207855225,1
10,unspaced,congruent,0.524701356887817,1
11,unspaced,neutral,0.739128351211548,1
12,unspaced,neutral,0.596528291702271,1
13,spaced,neutral,0.549870252609253,1
14,unspaced,neutral,0.473977327346802,1
15,unspaced,incongruent,0.491256237030029,0
16,spaced,congruent,0.631613492965698,1
17,unspaced,congruent,0.501123666763306,1
18,spaced,incongruent,0.831755399703979,1
19,spaced,incongruent,0.602414131164551,1
20,spaced,neutral,0.722223281860352,1
21,unspaced,incongruent,0.727169513702393,1
22,unspaced,neutral,0.461394071578979,1
23,unspaced,congruent,0.946373224258423,1
24,spaced,congruent,0.492916584014893,1
25,unspaced,congruent,0.554919481277466,1
26,spaced,neutral,0.522249221801758,1
27,spaced,neutral,0.576402425765991,1
28,spaced,incongruent,0.65673565864563,1
29,spaced,congruent,0.934023380279541,1
30,unspaced,incongruent,1.46618056297302,1
31,unspaced,neutral,0.467324495315552,1
32,unspaced,incongruent,0.759099245071411,1
33,spaced,incongruent,0.565539360046387,1
34,unspaced,neutral,0.696380138397217,1
35,spaced,congruent,0.554437160491943,1
36,unspaced,congruent,0.492860794067383,1
37,spaced,incongruent,0.581889152526855,1
38,spaced,congruent,0.630458831787109,1
39,spaced,neutral,0.675443172454834,1
40,unspaced,neutral,0.545259475708008,1
41,unspaced,incongruent,0.782294988632202,1
42,unspaced,neutral,0.789162874221802,1
43,unspaced,congruent,0.854954719543457,1
44,unspaced,incongruent,1.93139171600342,1
45,spaced,incongruent,1.84677290916443,1
46,unspaced,congruent,0.935142040252686,1
47,spaced,congruent,0.708270072937012,1
48,spaced,neutral,0.834804773330688,1
49,unspaced,neutral,0.62535285949707,1
50,unspaced,incongruent,1.09512805938721,1
51,unspaced,neutral,0.908555269241333,1
52,spaced,incongruent,0.824276924133301,1
53,unspaced,congruent,1.04556393623352,1
54,unspaced,incongruent,0.714126586914062,1
55,spaced,congruent,0.608459949493408,1
56,spaced,neutral,0.617933511734009,1
57,spaced,incongruent,0.610233306884766,1
58,unspaced,congruent,0.672758102416992,1
59,spaced,congruent,0.54671835899353,1
60,spaced,neutral,0.555349111557007,1
1,unspaced,incongruent,1.07353854179382,1
2,spaced,neutral,0.568835258483887,1
3,spaced,congruent,0.513441801071167,1
4,spaced,incongruent,0.522173881530762,1
5,unspaced,congruent,0.541026830673218,1
6,spaced,neutral,0.599730491638184,1
7,unspaced,neutral,0.581478834152222,1
8,spaced,incongruent,0.539960145950317,1
9,unspaced,congruent,0.440049886703491,0
10,spaced,congruent,0.732038974761963,1
11,unspaced,incongruent,0.86047887802124,1
12,unspaced,neutral,0.4967041015625,1
13,spaced,neutral,0.575704097747803,1
14,spaced,congruent,0.590497016906738,1
15,spaced,neutral,0.587214469909668,1
16,unspaced,incongruent,0.53873348236084,1
17,spaced,congruent,0.485239028930664,1
18,spaced,incongruent,0.64941143989563,1
19,unspaced,congruent,0.68367862701416,1
20,spaced,incongruent,1.37586760520935,1
21,unspaced,neutral,0.637349128723145,1
22,unspaced,neutral,0.604573011398315,1
23,unspaced,congruent,0.585433959960938,1
24,unspaced,incongruent,0.873955965042114,1
25,unspaced,congruent,0.781872987747192,1
26,unspaced,incongruent,0.959329605102539,1
27,spaced,incongruent,0.887825012207031,1
28,spaced,neutral,0.802938938140869,1
29,unspaced,neutral,0.685751914978027,1
30,unspaced,neutral,0.682187557220459,1
31,spaced,congruent,0.624979496002197,1
32,unspaced,congruent,0.62155294418335,1
33,spaced,incongruent,0.549112558364868,1
34,spaced,neutral,0.565544128417969,1
35,spaced,congruent,0.765465259552002,1
36,unspaced,incongruent,0.725614070892334,1
37,unspaced,neutral,0.639193058013916,1
38,spaced,neutral,0.594139099121094,1
39,unspaced,incongruent,0.642516851425171,1
40,spaced,incongruent,0.535286664962769,1
41,unspaced,incongruent,0.695584535598755,1
42,unspaced,congruent,0.666990756988525,1
43,spaced,neutral,0.511409997940063,1
44,unspaced,neutral,0.690567016601562,1
45,unspaced,congruent,0.550916194915771,1
46,spaced,incongruent,0.629032135009766,1
47,spaced,congruent,0.510435581207275,1
48,spaced,congruent,0.701133966445923,1
49,unspaced,incongruent,0.697080612182617,1
50,spaced,incongruent,1.15556812286377,1
51,unspaced,neutral,0.548766136169434,1
52,spaced,neutral,0.746576547622681,1
53,unspaced,congruent,0.893962621688843,1
54,spaced,neutral,0.554642200469971,1
55,unspaced,congruent,0.642763376235962,1
56,spaced,incongruent,0.656899452209473,1
57,unspaced,incongruent,0.891713380813599,1
58,spaced,congruent,0.901497602462769,1
59,spaced,congruent,0.898197650909424,1
60,unspaced,neutral,0.803395748138428,1
1,spaced,neutral,0.776562929153442,1
2,spaced,incongruent,0.595021963119507,1
3,unspaced,congruent,0.490480899810791,1
4,unspaced,congruent,0.497584342956543,1
5,spaced,incongruent,0.376313924789429,0
6,spaced,neutral,0.533047437667847,1
7,unspaced,neutral,0.366715431213379,1
8,unspaced,neutral,0.504996776580811,1
9,unspaced,incongruent,0.428683280944824,0
10,spaced,congruent,0.439787864685059,1
11,spaced,congruent,0.534072399139404,1
12,unspaced,incongruent,0.645676851272583,1
13,spaced,incongruent,0.73820686340332,1
14,unspaced,congruent,1.02841877937317,1
15,unspaced,incongruent,0.842315912246704,1
16,spaced,neutral,0.63301682472229,1
17,spaced,congruent,0.628377914428711,1
18,spaced,neutral,0.653018712997437,1
19,unspaced,congruent,0.631595373153687,1
20,spaced,incongruent,0.698565244674683,1
21,unspaced,neutral,0.601447582244873,1
22,unspaced,neutral,0.568568229675293,1
23,unspaced,incongruent,0.645818710327148,1
24,spaced,congruent,0.723358154296875,1
25,spaced,incongruent,0.650796890258789,1
26,spaced,neutral,0.634393692016602,1
27,spaced,incongruent,1.96775007247925,1
28,unspaced,congruent,0.640542984008789,1
29,unspaced,incongruent,0.443190097808838,0
30,unspaced,incongruent,0.679232835769653,0
31,spaced,congruent,0.516757726669312,1
32,spaced,neutral,0.591615676879883,1
33,unspaced,congruent,0.517817258834839,1
34,unspaced,neutral,0.865900754928589,1
35,unspaced,neutral,0.90767240524292,1
36,spaced,congruent,1.00743126869202,1
37,spaced,incongruent,0.908073902130127,1
38,unspaced,congruent,0.717527389526367,1
39,spaced,congruent,0.622829437255859,1
40,unspaced,neutral,0.739384412765503,1
41,unspaced,incongruent,1.78178930282593,1
42,spaced,neutral,0.766530513763428,1
43,spaced,congruent,0.686958312988281,1
44,unspaced,congruent,0.617650747299194,1
45,unspaced,neutral,0.502862930297852,1
46,unspaced,incongruent,1.01405191421509,1
47,spaced,incongruent,1.14605569839478,1
48,spaced,neutral,0.960881471633911,1
49,unspaced,congruent,0.676397085189819,1
50,spaced,neutral,0.711005687713623,1
51,spaced,incongruent,0.663918733596802,1
52,spaced,neutral,0.738503217697144,1
53,unspaced,incongruent,0.71246337890625,1
54,unspaced,neutral,0.690408229827881,1
55,spaced,incongruent,0.53226900100708,1
56,unspaced,congruent,0.539811611175537,1
57,spaced,congruent,0.584335565567017,1
58,unspaced,neutral,0.451882839202881,0
59,spaced,congruent,0.643323183059692,1
60,unspaced,incongruent,0.348807811737061,0
1,spaced,neutral,0.969276189804077,1
2,spaced,incongruent,0.56763744354248,1
3,spaced,neutral,0.588748693466187,1
4,unspaced,incongruent,0.598772048950195,0
5,unspaced,congruent,0.522899150848389,1
6,spaced,congruent,0.732309579849243,1
7,unspaced,neutral,0.639210224151611,1
8,unspaced,incongruent,0.578920125961304,1
9,spaced,incongruent,0.851671695709229,1
10,spaced,congruent,0.634140491485596,1
11,unspaced,congruent,0.568048000335693,1
12,unspaced,neutral,0.476369142532349,1
13,unspaced,neutral,0.584139823913574,1
14,spaced,incongruent,0.578114986419678,1
15,unspaced,neutral,0.615256786346436,1
16,spaced,neutral,0.569226026535034,1
17,unspaced,incongruent,0.669526100158691,1
18,spaced,congruent,0.537795305252075,1
19,spaced,neutral,0.5421302318573,1
20,unspaced,congruent,0.5420241355896,1
21,spaced,incongruent,0.472655057907104,1
22,unspaced,incongruent,1.37072849273682,1
23,unspaced,congruent,0.665555953979492,1
24,spaced,congruent,0.639366149902344,1
25,unspaced,neutral,0.601722717285156,1
26,unspaced,neutral,0.541925430297852,1
27,spaced,neutral,0.438127040863037,1
28,spaced,incongruent,0.516059637069702,1
29,spaced,neutral,0.754286766052246,1
30,spaced,congruent,0.870321273803711,1
31,spaced,incongruent,0.726601839065552,1
32,unspaced,incongruent,0.675739526748657,1
33,unspaced,congruent,0.432754516601562,1
34,unspaced,congruent,0.418416976928711,1
35,spaced,congruent,0.386460065841675,0
36,unspaced,incongruent,0.641104936599731,1
37,unspaced,neutral,0.72066593170166,1
38,unspaced,neutral,0.575051307678223,1
39,spaced,incongruent,0.519187450408936,1
40,unspaced,congruent,0.503390550613403,0
41,spaced,neutral,0.537770509719849,1
42,unspaced,incongruent,0.64767861366272,1
43,spaced,congruent,0.606158971786499,1
44,spaced,incongruent,0.458625555038452,1
45,unspaced,incongruent,0.535218000411987,1
46,spaced,neutral,0.478999137878418,1
47,spaced,congruent,0.380048990249634,0
48,unspaced,congruent,0.509232997894287,1
49,unspaced,incongruent,0.597488164901733,1
50,spaced,congruent,0.402045011520386,1
51,unspaced,neutral,0.410543203353882,0
52,spaced,incongruent,0.63311505317688,0
53,unspaced,congruent,0.520740032196045,1
54,spaced,incongruent,0.586302995681763,1
55,spaced,neutral,0.5131676197052,1
56,unspaced,incongruent,0.735450506210327,1
57,spaced,congruent,1.13667559623718,1
58,spaced,neutral,0.802072048187256,1
59,unspaced,congruent,0.930179595947266,1
60,unspaced,neutral,0.673673868179321,1
