Trial,Spacing,Congruent,RT,Accuracy
1,unspaced,incongruent,1.25503969192505,1
2,spaced,congruent,0.978819847106934,1
3,spaced,neutral,0.780535221099854,1
4,unspaced,neutral,0.694047689437866,1
5,unspaced,congruent,1.07308173179626,1
6,unspaced,congruent,0.891733646392822,1
7,unspaced,neutral,0.79712963104248,0
8,spaced,incongruent,0.728282928466797,1
9,spaced,congruent,0.52085542678833,1
10,spaced,incongruent,0.703927040100098,1
11,unspaced,incongruent,0.644909381866455,1
12,spaced,neutral,0.66506028175354,1
13,spaced,neutral,0.621345043182373,1
14,spaced,congruent,0.515057325363159,1
15,spaced,incongruent,0.542961120605469,1
16,unspaced,congruent,0.38152813911438,1
17,unspaced,neutral,0.374058246612549,1
18,unspaced,congruent,0.286036729812622,0
19,spaced,neutral,1.12422275543213,1
20,unspaced,neutral,0.619418621063232,1
21,unspaced,incongruent,0.791655540466309,1
22,spaced,incongruent,0.641374111175537,1
23,unspaced,incongruent,0.622305393218994,1
24,spaced,congruent,0.709891080856323,1
25,unspaced,incongruent,0.993378400802612,1
26,unspaced,congruent,0.553133726119995,1
27,spaced,congruent,0.433170080184937,1
28,spaced,neutral,0.422202587127686,1
29,spaced,incongruent,0.475590705871582,1
30,unspaced,congruent,0.606803178787231,1
31,unspaced,neutral,0.532068252563477,1
32,spaced,congruent,0.636951208114624,1
33,unspaced,incongruent,0.825677156448364,1
34,spaced,incongruent,1.38610410690308,1
35,unspaced,neutral,0.934759378433228,1
36,spaced,neutral,1.13855886459351,1
37,unspaced,neutral,1.03228807449341,1
38,unspaced,congruent,0.673048973083496,0
39,unspaced,incongruent,0.689238786697388,1
40,unspaced,congruent,0.605046987533569,1
41,unspaced,incongruent,0.802691698074341,1
42,spaced,incongruent,0.756699323654175,1
43,spaced,congruent,0.650906085968018,1
44,spaced,congruent,0.534008264541626,1
45,spaced,neutral,1.13812780380249,1
46,unspaced,neutral,1.03335738182068,1
47,spaced,neutral,0.57375955581665,1
48,spaced,incongruent,0.535797119140625,1
49,spaced,neutral,1.12241339683533,1
50,spaced,incongruent,1.60456585884094,1
51,unspaced,neutral,1.15059494972229,1
52,unspaced,incongruent,0.85145115852356,1
53,unspaced,congruent,0.624730348587036,1
54,spaced,congruent,0.723200798034668,1
55,unspaced,congruent,0.605527877807617,1
56,unspaced,neutral,0.57033109664917,1
57,spaced,incongruent,0.494515419006348,1
58,spaced,neutral,0.773025989532471,1
59,spaced,congruent,0.50428032875061,1
60,unspaced,incongruent,0.844026565551758,1
1,unspaced,congruent,0.79028058052063,1
2,spaced,incongruent,1.23788404464722,0
3,unspaced,incongruent,0.667243242263794,1
4,spaced,neutral,0.664263486862183,1
5,spaced,congruent,0.932466506958008,1
6,unspaced,incongruent,0.698628902435303,1
7,spaced,neutral,1.42107915878296,1
8,unspaced,neutral,0.802732229232788,1
9,unspaced,neutral,0.804752111434937,1
10,unspaced,congruent,0.85425853729248,1
11,spaced,congruent,0.806602716445923,1
12,spaced,incongruent,0.779048919677734,0
13,spaced,neutral,1.4927499294281,1
14,spaced,congruent,0.614804267883301,1
15,unspaced,congruent,0.674582719802856,1
16,spaced,incongruent,0.610204935073853,1
17,spaced,incongruent,0.637755870819092,1
18,unspaced,neutral,0.597650766372681,1
19,unspaced,incongruent,0.809932470321655,1
20,spaced,neutral,0.728185653686523,1
21,unspaced,neutral,0.626171112060547,1
22,unspaced,congruent,0.762125968933105,1
23,unspaced,incongruent,0.79241681098938,1
24,spaced,congruent,0.744016170501709,1
25,spaced,incongruent,1.11858129501343,1
26,unspaced,neutral,0.830076694488525,1
27,spaced,incongruent,0.640488147735596,1
28,spaced,neutral,0.742536783218384,1
29,unspaced,congruent,0.932516098022461,1
30,unspaced,neutral,1.18253993988037,1
31,spaced,congruent,1.03417348861694,1
32,unspaced,incongruent,0.948889493942261,1
33,spaced,congruent,3.56423687934875,1
34,spaced,neutral,1.09306907653809,1
35,unspaced,congruent,1.01799917221069,1
36,unspaced,incongruent,0.855718374252319,1
37,unspaced,congruent,1.0511167049408,1
38,spaced,incongruent,1.11284136772156,1
39,spaced,congruent,0.892872095108032,1
40,spaced,neutral,0.614444971084595,1
41,unspaced,incongruent,1.05223178863525,1
42,unspaced,neutral,0.814758777618408,1
43,unspaced,incongruent,0.828616142272949,1
44,spaced,congruent,0.801917314529419,1
45,spaced,incongruent,5.29931616783142,1
46,spaced,neutral,0.839003562927246,1
47,unspaced,congruent,0.736629009246826,1
48,unspaced,neutral,1.00937485694885,1
49,unspaced,congruent,1.09682464599609,1
50,spaced,congruent,1.69495630264282,1
51,spaced,neutral,0.718531847000122,1
52,spaced,incongruent,0.655565977096558,1
53,unspaced,incongruent,1.50269389152527,1
54,unspaced,neutral,1.06587290763855,1
55,spaced,neutral,0.486694574356079,1
56,unspaced,neutral,0.688757181167603,1
57,spaced,congruent,0.874082803726196,1
58,unspaced,congruent,0.661092758178711,1
59,spaced,incongruent,0.73027229309082,1
60,unspaced,incongruent,1.63187694549561,1
1,unspaced,congruent,0.736893177032471,1
2,spaced,congruent,0.635326862335205,1
3,spaced,incongruent,0.752426385879517,1
4,spaced,congruent,0.719922780990601,1
5,unspaced,neutral,0.647216320037842,1
6,spaced,neutral,0.52996563911438,1
7,unspaced,incongruent,0.95386004447937,1
8,unspaced,congruent,0.707161426544189,1
9,spaced,neutral,1.06455135345459,1
10,spaced,incongruent,0.831937313079834,1
11,unspaced,neutral,0.702095746994019,1
12,unspaced,incongruent,1.28244519233704,1
13,unspaced,incongruent,1.02711081504822,1
14,spaced,congruent,0.809919357299805,1
15,unspaced,neutral,0.408064603805542,0
16,spaced,incongruent,2.65951561927795,1
17,unspaced,incongruent,0.878308296203613,1
18,unspaced,congruent,0.941317081451416,1
19,spaced,neutral,0.914316177368164,1
20,spaced,neutral,2.76457524299622,1
21,unspaced,congruent,0.841279983520508,1
22,spaced,congruent,0.950870990753174,1
23,spaced,incongruent,0.962673902511597,1
24,unspaced,neutral,0.921581506729126,1
25,spaced,congruent,1.11148166656494,1
26,unspaced,congruent,0.715682744979858,1
27,unspaced,incongruent,1.17978549003601,1
28,spaced,incongruent,0.684035539627075,1
29,unspaced,congruent,0.5591139793396,1
30,spaced,congruent,0.552414417266846,1
31,unspaced,neutral,0.98430609703064,1
32,unspaced,neutral,0.593121767044067,1
33,spaced,neutral,0.63202428817749,1
34,unspaced,incongruent,1.32532978057861,1
35,spaced,incongruent,0.841211557388306,1
36,spaced,neutral,4.82260084152222,1
37,unspaced,neutral,0.921146392822266,1
38,unspaced,congruent,0.636660814285278,1
39,spaced,incongruent,0.410218477249146,1
40,spaced,incongruent,0.70649528503418,1
41,unspaced,congruent,0.740945339202881,1
42,unspaced,neutral,0.738433837890625,1
43,unspaced,incongruent,0.558072328567505,1
44,spaced,neutral,0.501694679260254,1
45,spaced,congruent,0.80990743637085,1
46,unspaced,incongruent,0.765031576156616,1
47,spaced,neutral,0.735010147094727,1
48,spaced,congruent,0.562476396560669,1
49,unspaced,incongruent,0.553760290145874,1
50,unspaced,neutral,0.58817982673645,1
51,spaced,neutral,0.624834775924683,1
52,unspaced,congruent,0.501729011535645,1
53,unspaced,congruent,0.571974754333496,1
54,spaced,congruent,0.631761074066162,1
55,spaced,neutral,0.453716278076172,1
56,unspaced,incongruent,0.620594263076782,1
57,spaced,incongruent,0.584151983261108,1
58,spaced,congruent,0.715932369232178,1
59,spaced,incongruent,0.522268295288086,1
60,unspaced,neutral,0.685853481292725,1
1,unspaced,incongruent,1.34079694747925,1
2,spaced,incongruent,0.746585607528687,1
3,unspaced,neutral,0.70780611038208,1
4,unspaced,neutral,0.710361003875732,1
5,spaced,congruent,0.529443264007568,1
6,spaced,incongruent,0.732802152633667,1
7,unspaced,congruent,0.662856578826904,1
8,unspaced,congruent,0.745410442352295,1
9,spaced,neutral,0.619645833969116,1
10,spaced,neutral,2.09994435310364,0
11,spaced,congruent,0.908628940582275,1
12,unspaced,incongruent,0.982223272323608,1
13,spaced,neutral,0.583261966705322,1
14,spaced,neutral,0.661456823348999,1
15,spaced,incongruent,0.935961961746216,1
16,spaced,congruent,0.768597602844238,1
17,unspaced,neutral,0.913403987884521,1
18,unspaced,incongruent,0.806064128875732,1
19,unspaced,incongruent,0.923587083816528,1
20,spaced,congruent,0.868576765060425,1
21,unspaced,congruent,0.872879505157471,1
22,spaced,incongruent,0.851702928543091,1
23,unspaced,congruent,0.586097955703735,1
24,unspaced,neutral,0.694495439529419,1
25,unspaced,neutral,1.00407361984253,1
26,spaced,congruent,0.760935306549072,1
27,unspaced,incongruent,1.29473352432251,1
28,spaced,neutral,0.833600759506226,1
29,unspaced,congruent,0.912250518798828,1
30,unspaced,neutral,0.698692798614502,1
31,spaced,incongruent,0.620102405548096,1
32,spaced,neutral,0.901216745376587,1
33,spaced,congruent,0.613664150238037,1
34,unspaced,congruent,0.599634170532227,1
35,unspaced,incongruent,0.970632553100586,1
36,spaced,incongruent,0.669105052947998,1
37,unspaced,incongruent,0.914087533950806,1
38,spaced,neutral,0.809004306793213,1
39,unspaced,congruent,0.833187580108643,1
40,spaced,incongruent,0.791767358779907,1
41,unspaced,neutral,0.804438829421997,1
42,unspaced,congruent,0.945208549499512,1
43,unspaced,neutral,0.731271505355835,1
44,spaced,incongruent,0.743381261825562,1
45,unspaced,incongruent,0.708781003952026,1
46,spaced,congruent,0.819006443023682,1
47,spaced,congruent,0.893707990646362,1
48,spaced,neutral,0.883402109146118,1
49,unspaced,neutral,0.625313997268677,1
50,spaced,congruent,0.627476215362549,1
51,spaced,incongruent,1.09140825271606,0
52,unspaced,incongruent,2.70048785209656,1
53,unspaced,neutral,0.878194570541382,1
54,unspaced,incongruent,0.916571140289307,1
55,spaced,neutral,0.811924457550049,1
56,spaced,congruent,1.2053279876709,1
57,unspaced,congruent,0.824408054351807,1
58,spaced,incongruent,0.769770383834839,1
59,spaced,neutral,1.02295160293579,1
60,unspaced,congruent,0.893623352050781,1
