Trial,Spacing,Congruent,RT,Accuracy
1,spaced,incongruent,1.77107739448547,1
2,unspaced,incongruent,1.03399920463562,1
3,unspaced,congruent,0.943517923355103,1
4,spaced,congruent,0.917871236801147,1
5,spaced,incongruent,0.629999399185181,1
6,unspaced,neutral,0.623944044113159,1
7,unspaced,congruent,0.901171445846558,1
8,spaced,congruent,0.911169052124023,1
9,spaced,neutral,0.697162389755249,1
10,unspaced,neutral,0.730329513549805,1
11,spaced,neutral,0.830914974212646,1
12,unspaced,incongruent,0.514181137084961,1
13,spaced,neutral,0.756180047988892,1
14,spaced,neutral,0.422056913375854,1
15,unspaced,neutral,0.408438920974731,1
16,spaced,incongruent,0.795180082321167,1
17,unspaced,neutral,0.719589948654175,1
18,spaced,incongruent,1.46793723106384,1
19,unspaced,congruent,0.941110134124756,1
20,unspaced,incongruent,1.20723795890808,1
21,unspaced,congruent,0.66326379776001,1
22,unspaced,incongruent,1.13784956932068,1
23,spaced,congruent,0.821540594100952,1
24,spaced,congruent,0.615921974182129,1
25,spaced,neutral,0.712143898010254,1
26,unspaced,congruent,0.560983896255493,1
27,unspaced,incongruent,0.867246866226196,1
28,spaced,congruent,0.395965814590454,0
29,unspaced,neutral,0.875344276428223,1
30,spaced,congruent,0.704817295074463,1
31,spaced,neutral,0.541333436965942,1
32,unspaced,congruent,0.853200197219849,1
33,unspaced,neutral,0.682898998260498,1
34,spaced,incongruent,0.745761156082153,1
35,unspaced,incongruent,0.582607269287109,1
36,spaced,incongruent,0.866477727890015,1
37,spaced,congruent,0.676926612854004,1
38,spaced,neutral,0.931701898574829,1
39,spaced,incongruent,0.979236364364624,1
40,spaced,congruent,0.562416791915894,1
41,spaced,neutral,0.899328231811523,1
42,unspaced,incongruent,1.00028300285339,1
43,unspaced,incongruent,0.599555730819702,1
44,unspaced,congruent,0.686574220657349,1
45,unspaced,neutral,0.791427373886108,1
46,unspaced,neutral,0.790391445159912,1
47,spaced,incongruent,0.812868118286133,1
48,unspaced,congruent,0.850675106048584,1
49,unspaced,incongruent,0.903962373733521,1
50,spaced,neutral,0.837186336517334,1
51,spaced,incongruent,0.791223764419556,1
52,spaced,incongruent,0.897534847259521,1
53,spaced,congruent,0.789065837860107,1
54,spaced,neutral,0.795835733413696,1
55,unspaced,neutral,0.537708520889282,1
56,unspaced,neutral,0.764474868774414,1
57,unspaced,congruent,0.673010110855103,1
58,unspaced,incongruent,0.720224857330322,1
59,spaced,congruent,0.758795738220215,1
60,unspaced,congruent,0.942761898040771,1
1,spaced,congruent,2.70578384399414,1
2,spaced,neutral,0.522185802459717,1
3,unspaced,congruent,0.720036506652832,1
4,unspaced,congruent,0.627036094665527,1
5,spaced,incongruent,0.616265535354614,1
6,spaced,incongruent,0.508764982223511,1
7,spaced,neutral,0.566239356994629,1
8,unspaced,neutral,0.788300514221191,1
9,unspaced,neutral,0.549749374389648,1
10,spaced,congruent,0.775667667388916,1
11,unspaced,incongruent,1.00493216514587,1
12,unspaced,incongruent,1.46810698509216,1
13,unspaced,neutral,0.773882389068604,1
14,unspaced,congruent,0.991214990615845,1
15,spaced,incongruent,0.563802480697632,1
16,unspaced,neutral,0.637681484222412,1
17,spaced,congruent,0.579912900924683,1
18,unspaced,incongruent,0.513725996017456,1
19,spaced,congruent,0.668189525604248,1
20,spaced,neutral,1.20407390594482,1
21,unspaced,congruent,0.839533567428589,1
22,spaced,neutral,0.571038007736206,1
23,unspaced,incongruent,0.822571992874146,1
24,spaced,incongruent,0.721432447433472,1
25,unspaced,incongruent,1.78112483024597,1
26,spaced,congruent,1.41971302032471,1
27,spaced,incongruent,0.975262641906738,1
28,unspaced,neutral,0.830978155136108,1
29,spaced,incongruent,1.46059536933899,1
30,unspaced,congruent,0.893631458282471,1
31,unspaced,neutral,0.828288078308105,1
32,spaced,congruent,0.801661014556885,1
33,unspaced,congruent,0.820549488067627,1
34,spaced,neutral,1.07424759864807,1
35,unspaced,incongruent,0.877393007278442,1
36,spaced,neutral,2.85711169242859,1
37,unspaced,incongruent,1.0602400302887,1
38,unspaced,incongruent,1.60480093955994,1
39,spaced,neutral,1.26782822608948,1
40,spaced,congruent,0.761083841323853,1
41,unspaced,neutral,2.26897644996643,1
42,spaced,incongruent,0.596072912216187,1
43,spaced,incongruent,4.04623937606812,1
44,unspaced,neutral,0.77716851234436,1
45,spaced,neutral,1.75905323028564,1
46,unspaced,congruent,0.796083211898804,1
47,spaced,congruent,1.05564045906067,1
48,unspaced,congruent,1.54466700553894,1
49,unspaced,neutral,1.84733438491821,1
50,unspaced,congruent,1.06038498878479,1
51,spaced,neutral,0.606203556060791,1
52,unspaced,incongruent,0.998220443725586,1
53,spaced,congruent,1.45510816574097,1
54,unspaced,congruent,0.555203914642334,1
55,spaced,neutral,1.03511023521423,1
56,unspaced,neutral,1.09039926528931,1
57,unspaced,incongruent,1.02903270721436,1
58,spaced,incongruent,0.959001064300537,1
59,spaced,incongruent,0.801490068435669,1
60,spaced,congruent,0.486092567443848,1
1,spaced,congruent,2.45421075820923,1
2,spaced,neutral,0.791128158569336,1
3,unspaced,congruent,1.01423048973083,1
4,unspaced,neutral,0.589340448379517,1
5,spaced,congruent,0.643916845321655,1
6,spaced,incongruent,0.684274435043335,1
7,unspaced,neutral,0.610576391220093,1
8,unspaced,incongruent,0.945859909057617,1
9,spaced,neutral,0.635629415512085,1
10,unspaced,incongruent,0.783079624176025,1
11,spaced,incongruent,0.561241626739502,1
12,unspaced,congruent,0.43211030960083,1
13,unspaced,incongruent,0.502541303634644,1
14,unspaced,neutral,0.491685390472412,1
15,unspaced,congruent,0.501293420791626,1
16,spaced,congruent,0.618456840515137,1
17,unspaced,congruent,0.552622079849243,1
18,spaced,neutral,0.726055860519409,1
19,spaced,congruent,0.578364849090576,1
20,spaced,incongruent,0.542490482330322,1
21,unspaced,neutral,0.816352844238281,1
22,spaced,incongruent,0.470749139785767,1
23,spaced,neutral,0.534206628799438,1
24,unspaced,incongruent,0.516358852386475,1
25,spaced,congruent,0.711870908737183,1
26,unspaced,neutral,0.792388677597046,1
27,spaced,neutral,0.560041427612305,1
28,spaced,incongruent,0.667900085449219,1
29,unspaced,neutral,0.687074899673462,1
30,unspaced,congruent,0.464424133300781,1
31,spaced,neutral,0.701727390289307,1
32,unspaced,congruent,0.654825210571289,1
33,unspaced,incongruent,0.726290464401245,1
34,unspaced,incongruent,0.587321043014526,1
35,spaced,congruent,0.527153730392456,0
36,spaced,incongruent,0.893306732177734,1
37,spaced,congruent,0.570029020309448,1
38,unspaced,neutral,0.457941055297852,1
39,spaced,incongruent,0.543704032897949,1
40,spaced,incongruent,0.522148132324219,1
41,unspaced,neutral,0.624657154083252,0
42,spaced,neutral,0.614284038543701,1
43,unspaced,congruent,0.675379514694214,1
44,spaced,neutral,2.02640247344971,1
45,unspaced,incongruent,0.725470304489136,1
46,unspaced,incongruent,1.03402471542358,1
47,spaced,congruent,1.20652985572815,1
48,unspaced,congruent,0.685173511505127,1
49,spaced,incongruent,0.893367290496826,1
50,spaced,congruent,0.770129203796387,1
51,unspaced,incongruent,0.913028478622437,1
52,unspaced,incongruent,0.757932662963867,1
53,unspaced,congruent,0.785563230514526,1
54,spaced,incongruent,1.27604007720947,1
55,spaced,neutral,0.67998480796814,1
56,unspaced,neutral,1.04967498779297,1
57,spaced,congruent,0.749595403671265,1
58,unspaced,congruent,0.568952322006226,1
59,unspaced,neutral,0.656191349029541,1
60,spaced,neutral,1.10310220718384,1
1,spaced,neutral,3.9552104473114,1
2,unspaced,congruent,0.814731597900391,1
3,spaced,incongruent,1.08491325378418,1
4,unspaced,congruent,0.677717208862305,1
5,unspaced,neutral,0.779144763946533,1
6,spaced,neutral,0.67162561416626,1
7,spaced,congruent,0.763532400131226,1
8,spaced,incongruent,1.11640501022339,1
9,unspaced,incongruent,1.11191368103027,1
10,unspaced,incongruent,1.03325700759888,1
11,spaced,congruent,1.31030654907227,1
12,unspaced,neutral,0.665883302688599,1
13,spaced,congruent,0.570603847503662,1
14,unspaced,congruent,0.742261171340942,1
15,unspaced,incongruent,0.698764801025391,1
16,spaced,neutral,0.770823240280151,1
17,unspaced,neutral,0.643362045288086,1
18,spaced,congruent,0.743929386138916,1
19,spaced,neutral,0.850736618041992,1
20,spaced,incongruent,0.843248128890991,1
21,unspaced,neutral,0.808968544006348,1
22,unspaced,congruent,0.777799367904663,1
23,unspaced,incongruent,0.632376194000244,1
24,spaced,incongruent,0.632561206817627,1
25,unspaced,congruent,0.754364252090454,1
26,spaced,congruent,0.627827167510986,1
27,spaced,incongruent,0.746831655502319,1
28,unspaced,incongruent,0.59336256980896,1
29,spaced,incongruent,0.803175449371338,1
30,unspaced,neutral,0.649964332580566,1
31,unspaced,congruent,0.678571462631226,1
32,unspaced,incongruent,0.583872318267822,1
33,unspaced,neutral,0.56905722618103,1
34,spaced,neutral,0.694299221038818,1
35,spaced,congruent,0.868319988250732,1
36,spaced,neutral,1.09284949302673,1
37,spaced,congruent,0.88785982131958,1
38,spaced,incongruent,0.843450546264648,1
39,spaced,congruent,0.8250412940979,1
40,unspaced,incongruent,0.823065519332886,1
41,spaced,neutral,0.883702754974365,1
42,unspaced,neutral,0.689820051193237,1
43,unspaced,neutral,0.692575454711914,1
44,spaced,neutral,0.69342303276062,1
45,unspaced,congruent,0.808642148971558,1
46,unspaced,congruent,0.896242380142212,1
47,spaced,incongruent,0.949833393096924,1
48,unspaced,incongruent,1.22854709625244,1
49,unspaced,congruent,1.54596734046936,1
50,spaced,congruent,0.661913394927979,1
51,unspaced,neutral,0.633716821670532,1
52,spaced,neutral,0.536138772964478,1
53,unspaced,neutral,0.584546804428101,1
54,spaced,congruent,0.679912567138672,1
55,unspaced,congruent,0.689041614532471,1
56,spaced,neutral,0.55553674697876,1
57,unspaced,incongruent,1.08829736709595,1
58,spaced,incongruent,0.743346214294434,1
59,spaced,incongruent,0.673526287078857,1
60,unspaced,incongruent,0.631252288818359,1
