Trial,Spacing,Congruent,RT,Accuracy
1,spaced,congruent,1.2073872089386,1
2,spaced,congruent,0.540998220443726,1
3,unspaced,neutral,0.638761281967163,1
4,unspaced,neutral,0.654189348220825,1
5,unspaced,incongruent,0.601921558380127,1
6,unspaced,incongruent,0.694136381149292,1
7,unspaced,congruent,0.577648401260376,1
8,unspaced,congruent,0.560969352722168,1
9,spaced,incongruent,0.403100728988647,0
10,spaced,neutral,0.395474195480347,0
11,spaced,incongruent,0.5668044090271,1
12,spaced,neutral,0.658076047897339,1
13,spaced,neutral,0.586977243423462,1
14,spaced,congruent,0.654840707778931,1
15,spaced,neutral,1.03946113586426,1
16,spaced,incongruent,0.711857557296753,1
17,unspaced,incongruent,1.07271575927734,1
18,unspaced,neutral,0.857908725738525,1
19,unspaced,neutral,0.696037292480469,1
20,unspaced,congruent,0.721734762191772,1
21,spaced,congruent,0.444746494293213,1
22,unspaced,congruent,0.744593858718872,1
23,spaced,incongruent,0.651962518692017,1
24,unspaced,incongruent,0.781539678573608,1
25,spaced,neutral,0.767977237701416,1
26,spaced,congruent,0.84548020362854,1
27,spaced,incongruent,1.0730152130127,1
28,unspaced,incongruent,0.728862047195435,1
29,unspaced,congruent,0.607033491134644,1
30,unspaced,neutral,0.766351699829102,1
31,spaced,incongruent,0.550231218338013,1
32,spaced,neutral,0.502455234527588,1
33,spaced,congruent,0.592440128326416,1
34,unspaced,incongruent,1.77456426620483,1
35,unspaced,congruent,0.480338573455811,1
36,unspaced,neutral,0.714989185333252,1
37,spaced,neutral,0.634100675582886,1
38,spaced,incongruent,0.909139156341553,1
39,unspaced,neutral,1.34664726257324,1
40,unspaced,neutral,0.929826259613037,1
41,unspaced,congruent,1.61060523986816,1
42,spaced,congruent,1.06405735015869,1
43,spaced,congruent,1.07410907745361,1
44,spaced,incongruent,1.58318567276001,1
45,unspaced,congruent,1.018315076828,1
46,unspaced,incongruent,0.995578289031982,1
47,unspaced,incongruent,1.09355497360229,1
48,spaced,neutral,1.165203332901,1
49,spaced,neutral,1.19451808929443,1
50,spaced,incongruent,1.28171467781067,1
51,unspaced,neutral,1.14027070999146,1
52,spaced,congruent,1.0862283706665,1
53,spaced,congruent,1.17715978622437,1
54,unspaced,congruent,0.692753791809082,1
55,unspaced,incongruent,0.836018085479736,1
56,unspaced,neutral,0.477008581161499,1
57,spaced,neutral,0.451412200927734,1
58,unspaced,congruent,0.534583330154419,1
59,spaced,incongruent,0.771822214126587,1
60,unspaced,incongruent,0.671342372894287,1
1,spaced,congruent,0.834505319595337,1
2,unspaced,congruent,0.535533666610718,1
3,spaced,incongruent,0.458073854446411,1
4,spaced,neutral,0.464475154876709,1
5,spaced,neutral,0.598052024841309,1
6,spaced,incongruent,0.584563493728638,1
7,unspaced,incongruent,0.777475118637085,1
8,unspaced,incongruent,0.690247297286987,1
9,unspaced,neutral,0.656372785568237,1
10,spaced,congruent,0.619455814361572,1
11,unspaced,congruent,1.13474440574646,1
12,unspaced,neutral,0.711508512496948,1
13,spaced,incongruent,1.03853750228882,1
14,spaced,neutral,0.543395519256592,1
15,spaced,congruent,0.387393236160278,1
16,unspaced,congruent,0.548403739929199,1
17,spaced,neutral,1.25708222389221,1
18,unspaced,incongruent,0.977495431900024,1
19,unspaced,neutral,1.40517354011536,1
20,unspaced,congruent,0.822612047195435,1
21,unspaced,neutral,0.719780921936035,1
22,spaced,incongruent,1.19000124931335,1
23,unspaced,incongruent,2.22604441642761,1
24,spaced,congruent,0.984196662902832,1
25,unspaced,incongruent,0.914302110671997,1
26,unspaced,neutral,0.739913463592529,1
27,spaced,incongruent,0.800310134887695,1
28,spaced,neutral,1.06377243995667,1
29,unspaced,congruent,0.739376783370972,1
30,unspaced,incongruent,1.35207533836365,1
31,spaced,congruent,0.863513708114624,1
32,spaced,incongruent,0.635602235794067,1
33,spaced,congruent,0.569371223449707,1
34,unspaced,congruent,0.68352484703064,1
35,spaced,neutral,0.755454063415527,1
36,unspaced,neutral,0.635949611663818,1
37,spaced,neutral,0.587118625640869,1
38,unspaced,congruent,0.531943082809448,1
39,spaced,incongruent,0.682179927825928,1
40,unspaced,congruent,0.849609851837158,1
41,unspaced,incongruent,0.773206233978271,1
42,spaced,congruent,1.17183947563171,1
43,unspaced,incongruent,1.28461217880249,1
44,unspaced,neutral,0.574976444244385,1
45,spaced,neutral,0.464637517929077,1
46,spaced,incongruent,0.669872522354126,0
47,unspaced,neutral,0.416345834732056,1
48,spaced,congruent,0.50016188621521,1
49,spaced,neutral,0.608325958251953,1
50,unspaced,neutral,0.641240835189819,1
51,unspaced,neutral,0.557623863220215,0
52,unspaced,congruent,0.587562799453735,1
53,spaced,neutral,0.706681966781616,1
54,spaced,congruent,0.599016904830933,1
55,spaced,congruent,0.84001636505127,1
56,unspaced,congruent,0.920673847198486,1
57,spaced,incongruent,2.26288771629333,1
58,unspaced,incongruent,0.953512907028198,1
59,spaced,incongruent,0.961363077163696,1
60,unspaced,incongruent,1.48053407669067,0
1,unspaced,neutral,1.19407320022583,1
2,spaced,incongruent,0.760517835617065,1
3,spaced,congruent,0.618106365203857,1
4,unspaced,congruent,1.01783871650696,1
5,spaced,incongruent,1.25315833091736,1
6,spaced,neutral,0.857266902923584,1
7,spaced,neutral,0.701607942581177,1
8,unspaced,congruent,0.54406476020813,1
9,unspaced,incongruent,1.33018445968628,0
10,unspaced,neutral,0.82593035697937,1
11,unspaced,incongruent,0.647620439529419,1
12,spaced,congruent,0.428843975067139,1
13,spaced,congruent,1.09485244750977,1
14,unspaced,neutral,1.57758688926697,1
15,unspaced,congruent,1.21715784072876,1
16,spaced,congruent,1.28590083122253,1
17,unspaced,congruent,2.54583168029785,1
18,spaced,neutral,0.631235837936401,1
19,unspaced,incongruent,1.00578594207764,0
20,unspaced,neutral,0.728293895721436,1
21,spaced,incongruent,1.75127172470093,1
22,unspaced,incongruent,0.719498872756958,1
23,spaced,incongruent,0.656819820404053,1
24,spaced,neutral,0.701802492141724,1
25,unspaced,neutral,1.37036943435669,1
26,unspaced,neutral,1.00082182884216,1
27,spaced,congruent,1.60666489601135,1
28,unspaced,incongruent,1.58793544769287,1
29,spaced,neutral,1.28440928459167,1
30,spaced,congruent,1.34742593765259,1
31,spaced,incongruent,1.17061376571655,1
32,spaced,neutral,1.13905215263367,1
33,unspaced,congruent,1.14673686027527,1
34,spaced,incongruent,1.17836403846741,0
35,unspaced,incongruent,2.01784753799438,1
36,unspaced,congruent,0.555157899856567,1
37,spaced,congruent,0.473537921905518,0
38,spaced,neutral,0.638090848922729,1
39,unspaced,incongruent,0.956843376159668,1
40,spaced,congruent,0.821840524673462,1
41,unspaced,congruent,0.883322954177856,1
42,spaced,incongruent,1.83554840087891,1
43,unspaced,congruent,1.5318660736084,1
44,unspaced,incongruent,2.68974494934082,1
45,unspaced,neutral,2.61568307876587,1
46,spaced,incongruent,4.82101511955261,1
47,spaced,neutral,1.05162286758423,1
48,unspaced,neutral,2.61425971984863,1
49,spaced,neutral,1.38610005378723,1
50,unspaced,congruent,1.16432881355286,1
51,unspaced,congruent,1.21314716339111,1
52,spaced,congruent,0.786164045333862,1
53,unspaced,incongruent,1.33518290519714,0
54,spaced,incongruent,0.897167205810547,1
55,spaced,incongruent,1.692143201828,0
56,unspaced,neutral,1.0070812702179,1
57,spaced,congruent,0.859599351882935,1
58,unspaced,neutral,0.74436092376709,1
59,spaced,neutral,1.61078715324402,1
60,unspaced,incongruent,2.32371187210083,1
1,spaced,incongruent,1.49305009841919,1
2,spaced,congruent,0.484620094299316,1
3,spaced,neutral,0.765852451324463,1
4,spaced,congruent,0.574949741363525,1
5,spaced,incongruent,0.513230562210083,1
6,unspaced,neutral,0.560168266296387,1
7,spaced,neutral,0.451903104782104,1
8,unspaced,neutral,0.552218437194824,1
9,unspaced,congruent,0.455398082733154,1
10,unspaced,congruent,0.550475358963013,1
11,unspaced,incongruent,0.714705467224121,1
12,unspaced,incongruent,0.719461917877197,1
13,spaced,neutral,0.58622407913208,1
14,spaced,neutral,0.431012392044067,1
15,spaced,congruent,0.508317947387695,1
16,unspaced,congruent,0.603509902954102,1
17,unspaced,incongruent,0.583544015884399,1
18,unspaced,congruent,0.52965784072876,1
19,unspaced,neutral,0.746101140975952,1
20,spaced,congruent,0.575871467590332,1
21,spaced,incongruent,0.656075477600098,1
22,unspaced,incongruent,0.740586996078491,1
23,unspaced,neutral,0.577287912368774,1
24,spaced,incongruent,1.0134449005127,1
25,spaced,neutral,0.901741027832031,1
26,unspaced,neutral,0.753874778747559,1
27,spaced,incongruent,0.734021663665771,1
28,unspaced,congruent,0.81239652633667,1
29,spaced,incongruent,0.693276882171631,0
30,unspaced,congruent,0.241180896759033,0
31,spaced,neutral,0.439447164535522,1
32,spaced,congruent,0.968755722045898,1
33,unspaced,incongruent,1.11623215675354,1
34,unspaced,neutral,0.887362480163574,1
35,unspaced,incongruent,0.616140127182007,1
36,spaced,congruent,1.32016682624817,0
37,spaced,congruent,0.744248151779175,1
38,spaced,congruent,1.06930184364319,1
39,unspaced,incongruent,1.36851048469543,1
40,unspaced,congruent,0.829590559005737,1
41,unspaced,incongruent,3.57949590682983,1
42,spaced,neutral,0.940976619720459,1
43,spaced,neutral,0.932724952697754,1
44,spaced,incongruent,1.20773696899414,1
45,unspaced,congruent,1.08273696899414,1
46,unspaced,neutral,0.876497507095337,1
47,unspaced,neutral,2.07452058792114,1
48,spaced,incongruent,0.759297609329224,1
49,spaced,incongruent,0.839259624481201,1
50,unspaced,neutral,0.941498041152954,1
51,unspaced,incongruent,0.924810409545898,1
52,spaced,congruent,0.607789516448975,1
53,spaced,neutral,0.615643501281738,1
54,unspaced,congruent,0.60221791267395,1
55,spaced,incongruent,0.656226634979248,1
56,spaced,congruent,0.580834627151489,1
57,unspaced,congruent,0.743716955184937,1
58,unspaced,neutral,0.703229427337646,1
59,unspaced,incongruent,2.03425931930542,1
60,spaced,neutral,1.25670409202576,1
