Trial,Spacing,Congruent,RT,Accuracy
1,unspaced,neutral,1.06645488739014,1
2,spaced,incongruent,1.56624984741211,1
3,unspaced,congruent,0.847562551498413,1
4,unspaced,incongruent,0.907397985458374,0
5,unspaced,neutral,0.778112411499023,1
6,spaced,congruent,0.559519290924072,1
7,spaced,incongruent,1.43204379081726,0
8,spaced,neutral,1.00697612762451,1
9,unspaced,congruent,1.16338849067688,1
10,spaced,neutral,0.809252977371216,1
11,unspaced,incongruent,1.34332680702209,1
12,spaced,congruent,0.755546808242798,1
13,spaced,congruent,0.65965723991394,1
14,unspaced,neutral,0.727408885955811,1
15,spaced,neutral,0.739370346069336,1
16,unspaced,congruent,0.777849197387695,1
17,unspaced,neutral,0.790421485900879,1
18,spaced,incongruent,1.66130471229553,1
19,unspaced,congruent,0.844566583633423,1
20,unspaced,incongruent,0.5391685962677,0
21,spaced,congruent,0.775765180587769,1
22,spaced,incongruent,0.748452663421631,1
23,unspaced,incongruent,0.927213191986084,1
24,spaced,neutral,0.72629189491272,1
25,spaced,incongruent,0.851265907287598,1
26,unspaced,neutral,0.644702672958374,1
27,unspaced,incongruent,0.957213878631592,1
28,unspaced,congruent,0.653990507125854,1
29,unspaced,congruent,0.344205379486084,1
30,spaced,neutral,0.61237907409668,1
31,unspaced,neutral,0.60699200630188,1
32,spaced,neutral,0.902814865112305,1
33,unspaced,incongruent,0.352430582046509,1
34,spaced,congruent,0.441855192184448,1
35,spaced,congruent,0.583996057510376,1
36,spaced,incongruent,0.648872375488281,1
37,spaced,congruent,0.53402304649353,1
38,unspaced,congruent,0.596660852432251,1
39,spaced,neutral,0.533135175704956,1
40,spaced,incongruent,0.605752944946289,1
41,unspaced,neutral,0.79887580871582,1
42,spaced,congruent,0.538327693939209,1
43,spaced,neutral,0.593987703323364,1
44,unspaced,congruent,0.546502113342285,1
45,spaced,incongruent,0.445252656936646,1
46,unspaced,incongruent,0.722314596176147,1
47,unspaced,incongruent,0.684409379959106,1
48,unspaced,neutral,0.38215160369873,0
49,spaced,congruent,1.05526638031006,1
50,unspaced,neutral,0.591693162918091,1
51,spaced,neutral,0.603702783584595,1
52,unspaced,incongruent,0.599671125411987,1
53,unspaced,neutral,0.544291257858276,1
54,spaced,incongruent,0.958042144775391,1
55,spaced,congruent,0.661452293395996,1
56,spaced,incongruent,0.748160839080811,1
57,unspaced,incongruent,0.679274082183838,1
58,spaced,neutral,0.306727170944214,1
59,unspaced,congruent,0.363611221313477,0
60,unspaced,congruent,0.79352879524231,1
1,unspaced,congruent,0.946485996246338,1
2,unspaced,incongruent,1.41594767570496,1
3,unspaced,congruent,0.679130554199219,1
4,spaced,incongruent,0.784982919692993,1
5,unspaced,neutral,0.67741060256958,1
6,spaced,congruent,1.01745319366455,1
7,spaced,neutral,0.869539260864258,1
8,spaced,neutral,0.743059873580933,1
9,spaced,congruent,1.20833420753479,1
10,unspaced,incongruent,1.07813739776611,1
11,unspaced,neutral,0.833352565765381,1
12,spaced,incongruent,0.680459022521973,1
13,spaced,congruent,0.580431461334229,1
14,spaced,congruent,0.748292207717896,1
15,spaced,neutral,0.589382648468018,1
16,unspaced,incongruent,0.635937213897705,1
17,unspaced,congruent,0.887987613677979,1
18,unspaced,neutral,0.728411197662354,1
19,unspaced,congruent,0.666806221008301,1
20,spaced,incongruent,0.847559213638306,1
21,spaced,incongruent,0.974123239517212,1
22,unspaced,neutral,0.685088157653809,1
23,unspaced,incongruent,0.736371994018555,1
24,spaced,neutral,0.762330770492554,1
25,spaced,incongruent,1.45663475990295,1
26,unspaced,congruent,0.82445216178894,1
27,unspaced,neutral,0.665734767913818,1
28,spaced,neutral,0.707249879837036,1
29,spaced,congruent,0.656759262084961,1
30,spaced,incongruent,0.62964916229248,1
31,unspaced,incongruent,0.853965044021606,1
32,spaced,congruent,0.719060897827148,1
33,unspaced,incongruent,0.76136326789856,1
34,unspaced,neutral,0.664441108703613,1
35,spaced,neutral,0.454438447952271,1
36,unspaced,congruent,0.738503694534302,1
37,spaced,neutral,0.757806539535522,1
38,spaced,incongruent,1.16619038581848,1
39,spaced,congruent,0.695265054702759,1
40,unspaced,congruent,0.799523115158081,1
41,spaced,neutral,1.11515116691589,1
42,spaced,incongruent,0.53434944152832,1
43,unspaced,neutral,2.55582213401794,1
44,unspaced,incongruent,1.0878963470459,1
45,unspaced,incongruent,1.87962198257446,1
46,spaced,congruent,0.694710969924927,1
47,unspaced,congruent,1.0333251953125,1
48,unspaced,neutral,0.814775705337524,1
49,spaced,incongruent,1.17767119407654,1
50,spaced,congruent,0.831131219863892,1
51,unspaced,incongruent,1.06815814971924,1
52,unspaced,neutral,1.02377319335938,1
53,spaced,congruent,1.0480649471283,1
54,spaced,neutral,0.753342628479004,1
55,spaced,incongruent,0.801741600036621,0
56,unspaced,neutral,0.954093933105469,1
57,unspaced,congruent,0.785679340362549,1
58,unspaced,congruent,0.620470285415649,1
59,spaced,neutral,0.0855085849761963,1
60,unspaced,incongruent,0.904604911804199,0
1,spaced,incongruent,1.27924728393555,1
2,spaced,congruent,0.83040976524353,1
3,spaced,incongruent,1.3454647064209,1
4,unspaced,incongruent,1.48209643363953,1
5,unspaced,incongruent,1.87826323509216,0
6,spaced,neutral,1.0750834941864,0
7,spaced,neutral,0.768168687820435,0
8,spaced,congruent,0.67932391166687,0
9,unspaced,congruent,0.649034261703491,1
10,unspaced,neutral,0.5759117603302,1
11,unspaced,neutral,0.92353343963623,1
12,unspaced,congruent,0.87044095993042,1
13,spaced,congruent,0.675067186355591,1
14,unspaced,incongruent,1.90062975883484,1
15,spaced,incongruent,0.783263683319092,1
16,unspaced,congruent,1.02991580963135,1
17,spaced,incongruent,1.59154391288757,1
18,unspaced,congruent,0.878106832504272,1
19,unspaced,incongruent,0.911273717880249,1
20,spaced,congruent,0.916568040847778,1
21,spaced,neutral,0.739596128463745,1
22,spaced,neutral,0.604124069213867,1
23,unspaced,neutral,0.7583167552948,1
24,unspaced,neutral,1.1439106464386,1
25,unspaced,neutral,1.23891139030457,1
26,spaced,incongruent,1.17960786819458,1
27,unspaced,neutral,0.782304048538208,1
28,spaced,congruent,0.773296356201172,1
29,unspaced,incongruent,0.948127746582031,1
30,spaced,incongruent,0.898695230484009,1
31,unspaced,congruent,1.07285141944885,1
32,spaced,congruent,0.617037534713745,1
33,unspaced,congruent,1.08037757873535,1
34,unspaced,incongruent,0.956926345825195,1
35,spaced,neutral,0.767230033874512,1
36,spaced,neutral,1.149249792099,1
37,unspaced,congruent,0.829437255859375,1
38,spaced,congruent,0.81925368309021,1
39,unspaced,incongruent,1.54551815986633,1
40,spaced,congruent,0.791959762573242,1
41,spaced,incongruent,1.02825093269348,1
42,spaced,incongruent,0.821408033370972,1
43,spaced,neutral,0.995915412902832,1
44,unspaced,incongruent,1.1006453037262,1
45,spaced,neutral,0.805205345153809,1
46,unspaced,neutral,1.17232871055603,1
47,unspaced,neutral,0.749298334121704,1
48,unspaced,congruent,0.687245607376099,1
49,unspaced,neutral,0.542080163955688,1
50,unspaced,congruent,1.37141060829163,1
51,spaced,incongruent,1.16155862808228,1
52,unspaced,incongruent,0.809263944625854,1
53,spaced,congruent,0.591989994049072,1
54,unspaced,incongruent,1.12519001960754,1
55,spaced,congruent,0.534506559371948,1
56,unspaced,congruent,0.721757173538208,1
57,spaced,incongruent,0.842005968093872,1
58,spaced,neutral,0.766041040420532,1
59,unspaced,neutral,0.648401975631714,1
60,spaced,neutral,0.62140965461731,1
1,spaced,incongruent,1.26022100448608,1
2,unspaced,neutral,0.586500883102417,1
3,unspaced,incongruent,0.586014270782471,1
4,spaced,incongruent,0.510856151580811,1
5,unspaced,incongruent,0.721017599105835,1
6,unspaced,congruent,0.597162008285522,1
7,unspaced,congruent,0.573113918304443,1
8,spaced,neutral,0.552551984786987,1
9,unspaced,neutral,0.622023820877075,1
10,spaced,congruent,0.744291067123413,1
11,spaced,neutral,0.467936515808105,1
12,spaced,congruent,0.321124792098999,0
13,spaced,neutral,0.810199737548828,1
14,spaced,congruent,0.551881313323975,1
15,unspaced,neutral,0.358474493026733,1
16,spaced,congruent,0.485522985458374,1
17,unspaced,incongruent,0.620761871337891,1
18,unspaced,neutral,0.651161432266235,1
19,spaced,incongruent,0.846352815628052,1
20,unspaced,congruent,0.603996992111206,1
21,unspaced,congruent,0.430920362472534,1
22,spaced,neutral,0.559539794921875,1
23,spaced,incongruent,0.941707849502563,1
24,unspaced,incongruent,1.10703635215759,1
25,spaced,neutral,0.37819504737854,1
26,unspaced,incongruent,0.593156814575195,1
27,spaced,congruent,0.371352434158325,1
28,unspaced,incongruent,1.57235097885132,1
29,spaced,incongruent,0.633132696151733,1
30,unspaced,congruent,0.639392852783203,1
31,spaced,congruent,0.843753814697266,1
32,spaced,incongruent,0.744197368621826,1
33,spaced,neutral,0.593317031860352,1
34,unspaced,neutral,0.617833614349365,1
35,unspaced,congruent,0.614518642425537,1
36,unspaced,neutral,0.684548377990723,1
37,spaced,congruent,0.71853494644165,1
38,spaced,congruent,0.68376636505127,1
39,unspaced,incongruent,0.869196176528931,1
40,spaced,incongruent,0.862441062927246,1
41,unspaced,neutral,0.738075017929077,1
42,unspaced,neutral,0.758869409561157,1
43,unspaced,incongruent,1.014972448349,1
44,spaced,neutral,0.856974840164185,1
45,spaced,neutral,0.78354549407959,1
46,spaced,incongruent,0.581415891647339,1
47,unspaced,congruent,0.807099580764771,0
48,unspaced,congruent,1.01341891288757,1
49,spaced,incongruent,0.643596172332764,1
50,unspaced,incongruent,1.04735279083252,0
51,unspaced,neutral,0.900461912155151,1
52,unspaced,incongruent,1.31156778335571,1
53,unspaced,neutral,0.800768613815308,1
54,spaced,congruent,0.905584096908569,1
55,spaced,neutral,0.592132806777954,1
56,spaced,congruent,0.764093637466431,0
57,unspaced,congruent,0.513035297393799,1
58,spaced,incongruent,0.697109937667847,1
59,unspaced,congruent,0.683934926986694,1
60,spaced,neutral,0.531642913818359,1
