Trial,Spacing,Congruent,RT,Accuracy
1,unspaced,neutral,2.13660717010498,1
2,spaced,neutral,1.4195818901062,1
3,spaced,congruent,1.70983123779297,1
4,spaced,neutral,0.931252717971802,1
5,unspaced,congruent,1.24067687988281,1
6,spaced,congruent,1.06483936309814,1
7,spaced,incongruent,1.21266222000122,1
8,unspaced,neutral,1.20400595664978,1
9,unspaced,congruent,0.936347246170044,1
10,spaced,incongruent,0.890233993530273,1
11,unspaced,incongruent,1.08507037162781,1
12,unspaced,incongruent,1.49618411064148,1
13,unspaced,congruent,1.83697032928467,1
14,unspaced,incongruent,2.7902820110321,1
15,spaced,neutral,1.00460743904114,1
16,spaced,incongruent,2.70827507972717,1
17,spaced,congruent,1.06895875930786,1
18,spaced,congruent,0.8967444896698,1
19,spaced,neutral,1.06294560432434,1
20,spaced,incongruent,2.57276225090027,1
21,unspaced,neutral,0.816240310668945,1
22,unspaced,neutral,1.52665448188782,1
23,unspaced,incongruent,1.26530885696411,1
24,unspaced,congruent,0.971203327178955,1
25,unspaced,neutral,1.03138613700867,1
26,spaced,congruent,0.981050729751587,1
27,unspaced,congruent,0.954770088195801,1
28,spaced,neutral,0.889373064041138,1
29,unspaced,incongruent,1.2000572681427,1
30,unspaced,neutral,1.23874282836914,1
31,unspaced,incongruent,1.27385306358337,1
32,spaced,congruent,1.11743140220642,1
33,unspaced,congruent,1.00745987892151,1
34,spaced,incongruent,1.06313109397888,1
35,spaced,incongruent,0.947289943695068,1
36,spaced,neutral,1.30053114891052,1
37,unspaced,neutral,1.78722047805786,1
38,spaced,neutral,1.02368474006653,1
39,unspaced,incongruent,2.06885409355164,1
40,spaced,incongruent,1.43254494667053,1
41,spaced,neutral,4.19446992874146,1
42,unspaced,congruent,0.819935083389282,1
43,unspaced,neutral,0.917809963226318,1
44,unspaced,incongruent,1.23198246955872,1
45,unspaced,congruent,1.56394696235657,1
46,spaced,incongruent,1.55190539360046,1
47,spaced,congruent,0.984818935394287,1
48,spaced,congruent,1.01720309257507,1
49,spaced,congruent,0.966287851333618,1
50,spaced,incongruent,0.90882396697998,1
51,spaced,congruent,0.926348924636841,1
52,unspaced,incongruent,1.0744800567627,1
53,unspaced,congruent,0.935032606124878,1
54,spaced,neutral,1.24337244033813,1
55,unspaced,neutral,1.03345322608948,1
56,unspaced,neutral,1.25930905342102,1
57,spaced,incongruent,1.98083209991455,1
58,spaced,neutral,1.00273895263672,1
59,unspaced,incongruent,1.06177711486816,1
60,unspaced,congruent,0.903645277023315,1
1,unspaced,neutral,3.66866445541382,1
2,unspaced,neutral,1.12068486213684,1
3,spaced,incongruent,1.59411859512329,1
4,spaced,congruent,1.37670469284058,1
5,spaced,neutral,1.91654133796692,1
6,unspaced,incongruent,2.71534156799316,1
7,spaced,congruent,0.893354892730713,1
8,unspaced,incongruent,1.04011869430542,1
9,unspaced,congruent,0.899784326553345,1
10,unspaced,congruent,1.31223011016846,1
11,spaced,neutral,0.928818225860596,0
12,spaced,incongruent,1.4030487537384,1
13,unspaced,congruent,0.915250539779663,1
14,unspaced,incongruent,2.09905505180359,1
15,spaced,congruent,1.05424118041992,1
16,spaced,neutral,1.30372977256775,1
17,unspaced,neutral,1.2900402545929,1
18,unspaced,congruent,0.916864156723022,1
19,spaced,incongruent,0.898734569549561,1
20,unspaced,neutral,1.32149815559387,1
21,spaced,incongruent,2.29807567596436,1
22,spaced,neutral,0.995655536651611,1
23,spaced,congruent,0.88569164276123,1
24,unspaced,incongruent,0.982412099838257,1
25,unspaced,congruent,1.15625309944153,1
26,unspaced,neutral,1.03251695632935,1
27,spaced,congruent,1.46146631240845,1
28,unspaced,incongruent,1.70443296432495,1
29,unspaced,congruent,0.954123973846436,1
30,spaced,neutral,1.22800445556641,1
31,unspaced,incongruent,1.25729012489319,1
32,spaced,incongruent,1.13785219192505,1
33,spaced,incongruent,1.07898759841919,1
34,unspaced,neutral,1.27994060516357,1
35,spaced,congruent,1.2972424030304,1
36,spaced,neutral,2.16521644592285,1
37,unspaced,congruent,1.07227063179016,1
38,unspaced,incongruent,2.69568157196045,1
39,unspaced,neutral,1.06741809844971,1
40,spaced,incongruent,1.1146924495697,1
41,spaced,neutral,0.873368978500366,1
42,unspaced,neutral,0.985921382904053,1
43,unspaced,incongruent,0.846802473068237,1
44,unspaced,congruent,1.40164518356323,1
45,spaced,neutral,1.73738718032837,1
46,spaced,congruent,1.92831420898438,1
47,spaced,congruent,0.92195200920105,1
48,spaced,incongruent,0.704054355621338,1
49,unspaced,congruent,0.666586399078369,1
50,unspaced,neutral,0.983178615570068,1
51,unspaced,congruent,0.935183048248291,1
52,spaced,incongruent,0.757558584213257,1
53,spaced,incongruent,0.757762432098389,1
54,unspaced,incongruent,0.991713762283325,1
55,unspaced,neutral,0.741537809371948,1
56,spaced,congruent,1.29995846748352,1
57,spaced,neutral,1.03566956520081,1
58,spaced,neutral,0.812254667282104,1
59,spaced,congruent,0.940601110458374,1
60,unspaced,incongruent,0.935009002685547,1
1,unspaced,neutral,1.3075966835022,1
2,spaced,incongruent,1.04579424858093,1
3,unspaced,congruent,1.27389049530029,1
4,spaced,congruent,0.700764179229736,1
5,unspaced,congruent,0.955293655395508,1
6,spaced,congruent,0.889419078826904,1
7,unspaced,incongruent,1.07878637313843,1
8,spaced,incongruent,1.15079617500305,1
9,unspaced,neutral,0.93053412437439,1
10,unspaced,incongruent,1.03863787651062,1
11,spaced,neutral,1.29611897468567,1
12,spaced,neutral,1.33660197257996,1
13,spaced,neutral,1.32235097885132,1
14,unspaced,congruent,1.388267993927,1
15,spaced,neutral,2.503009557724,1
16,unspaced,neutral,0.93834114074707,1
17,spaced,incongruent,0.936910152435303,1
18,unspaced,congruent,1.01197552680969,1
19,spaced,congruent,0.910164356231689,1
20,unspaced,neutral,0.908382177352905,1
21,unspaced,incongruent,0.902650117874146,1
22,unspaced,incongruent,1.21411824226379,1
23,spaced,congruent,1.41984844207764,1
24,spaced,incongruent,1.1623592376709,1
25,spaced,congruent,1.10513424873352,1
26,unspaced,neutral,1.08490753173828,1
27,spaced,incongruent,1.075688123703,1
28,unspaced,neutral,1.16713571548462,1
29,unspaced,congruent,1.08948659896851,1
30,unspaced,congruent,0.897060632705688,1
31,spaced,incongruent,1.14861488342285,1
32,spaced,neutral,1.09632754325867,1
33,spaced,neutral,1.09464311599731,1
34,spaced,congruent,0.848620891571045,1
35,unspaced,incongruent,1.03834748268127,1
36,unspaced,incongruent,0.939998865127563,1
37,spaced,neutral,1.01933646202087,1
38,spaced,congruent,1.46778535842896,1
39,unspaced,congruent,0.951100826263428,1
40,spaced,incongruent,0.900268793106079,1
41,unspaced,neutral,1.20306086540222,1
42,unspaced,incongruent,1.59619522094727,1
43,spaced,incongruent,0.767966032028198,1
44,unspaced,neutral,1.22858858108521,1
45,unspaced,incongruent,1.32472062110901,1
46,spaced,congruent,0.819214820861816,1
47,unspaced,congruent,1.97606062889099,1
48,spaced,neutral,0.961506605148315,1
49,unspaced,congruent,1.44797277450562,1
50,spaced,neutral,0.572036266326904,1
51,spaced,incongruent,0.637813568115234,1
52,unspaced,congruent,0.677901268005371,1
53,spaced,incongruent,1.28485751152039,1
54,spaced,congruent,0.746566772460938,1
55,spaced,congruent,0.750644207000732,1
56,spaced,neutral,1.19858694076538,1
57,unspaced,incongruent,1.22882342338562,1
58,unspaced,neutral,1.06425428390503,1
59,unspaced,neutral,0.946550130844116,1
60,unspaced,incongruent,0.58801794052124,1
1,unspaced,neutral,0.269648551940918,0
2,spaced,neutral,1.62825846672058,1
3,unspaced,neutral,1.31846809387207,1
4,spaced,incongruent,1.2075674533844,1
5,spaced,neutral,0.824501991271973,1
6,unspaced,incongruent,0.81408429145813,1
7,unspaced,congruent,0.8779137134552,1
8,spaced,congruent,1.13075280189514,1
9,spaced,congruent,0.762732982635498,1
10,unspaced,incongruent,1.25566124916077,1
11,unspaced,congruent,0.703442573547363,1
12,spaced,incongruent,0.951996326446533,1
13,spaced,incongruent,0.786044597625732,1
14,unspaced,neutral,0.773992538452148,1
15,unspaced,incongruent,0.781846046447754,1
16,spaced,incongruent,0.926724433898926,1
17,unspaced,congruent,1.37528324127197,1
18,spaced,congruent,1.4177451133728,1
19,unspaced,neutral,1.24821591377258,1
20,unspaced,congruent,0.690931797027588,1
21,unspaced,incongruent,0.82143759727478,1
22,spaced,neutral,0.762292385101318,1
23,spaced,congruent,0.804152488708496,1
24,spaced,neutral,0.915003538131714,1
25,unspaced,incongruent,0.716562271118164,1
26,unspaced,neutral,0.814552545547485,1
27,unspaced,neutral,0.891695261001587,1
28,spaced,incongruent,0.8157958984375,1
29,unspaced,congruent,1.39168953895569,1
30,spaced,neutral,0.748759984970093,1
31,spaced,neutral,2.40978598594666,1
32,spaced,incongruent,1.29575204849243,1
33,unspaced,incongruent,1.54672503471375,1
34,unspaced,congruent,1.29674339294434,1
35,spaced,congruent,0.802591562271118,1
36,spaced,congruent,0.932070970535278,1
37,unspaced,congruent,0.795108795166016,1
38,spaced,incongruent,0.644603729248047,1
39,spaced,neutral,0.799346446990967,1
40,spaced,incongruent,1.10167956352234,1
41,unspaced,incongruent,0.849121332168579,1
42,spaced,neutral,3.0317165851593,1
43,unspaced,neutral,0.764270782470703,1
44,unspaced,incongruent,0.965742588043213,1
45,unspaced,neutral,0.8137366771698,1
46,spaced,congruent,1.15223050117493,1
47,unspaced,congruent,0.741328477859497,1
48,spaced,congruent,1.03560137748718,1
49,spaced,neutral,0.831720352172852,1
50,spaced,incongruent,1.01292300224304,1
51,unspaced,neutral,1.03534317016602,1
52,spaced,congruent,0.830029249191284,1
53,unspaced,congruent,0.661854028701782,1
54,spaced,incongruent,2.11493134498596,1
55,unspaced,incongruent,0.826331615447998,1
56,unspaced,congruent,0.687838077545166,1
57,spaced,congruent,0.751304149627686,1
58,spaced,neutral,1.26246857643127,1
59,unspaced,incongruent,1.10105085372925,1
60,unspaced,neutral,0.838397979736328,1
