Trial,Spacing,Congruent,RT,Accuracy
1,unspaced,neutral,2.43303823471069,1
2,spaced,incongruent,0.850351095199585,1
3,unspaced,congruent,0.783992052078247,1
4,unspaced,incongruent,0.752250909805298,1
5,unspaced,neutral,0.830765008926392,1
6,spaced,congruent,0.616039037704468,1
7,spaced,incongruent,0.854996919631958,1
8,spaced,neutral,0.720355033874512,1
9,unspaced,congruent,0.761231899261475,1
10,spaced,neutral,0.805019617080688,1
11,unspaced,incongruent,0.664373874664307,1
12,spaced,congruent,0.782453775405884,1
13,spaced,congruent,0.879114866256714,1
14,unspaced,neutral,2.19022488594055,1
15,spaced,neutral,0.823755741119385,1
16,unspaced,congruent,0.666526317596436,1
17,unspaced,neutral,0.630640745162964,1
18,spaced,incongruent,1.00064516067505,0
19,unspaced,congruent,1.29136610031128,1
20,unspaced,incongruent,0.921250343322754,1
21,spaced,congruent,0.856280088424683,1
22,spaced,incongruent,0.752446889877319,1
23,unspaced,incongruent,0.484811544418335,1
24,spaced,neutral,0.73635196685791,1
25,spaced,incongruent,0.65803599357605,1
26,unspaced,neutral,0.904124975204468,1
27,unspaced,incongruent,3.42638158798218,1
28,unspaced,congruent,2.33426284790039,1
29,unspaced,congruent,2.54399514198303,1
30,spaced,neutral,1.60752034187317,1
31,unspaced,neutral,0.973190069198608,1
32,spaced,neutral,0.78459095954895,1
33,unspaced,incongruent,1.69280958175659,1
34,spaced,congruent,2.45779013633728,1
35,spaced,congruent,0.8059241771698,1
36,spaced,incongruent,0.674859762191772,0
37,spaced,congruent,1.29509043693542,1
38,unspaced,congruent,0.674364566802979,1
39,spaced,neutral,0.741695880889893,1
40,spaced,incongruent,1.1411190032959,1
41,unspaced,neutral,1.14476609230042,1
42,spaced,congruent,1.02342438697815,1
43,spaced,neutral,1.99574708938599,0
44,unspaced,congruent,1.70691871643066,1
45,spaced,incongruent,5.72697281837463,1
46,unspaced,incongruent,0.954549551010132,1
47,unspaced,incongruent,1.00918006896973,1
48,unspaced,neutral,1.50151991844177,1
49,spaced,congruent,1.61689186096191,1
50,unspaced,neutral,0.800313949584961,1
51,spaced,neutral,0.728173732757568,1
52,unspaced,incongruent,0.675254344940186,1
53,unspaced,neutral,0.542933225631714,1
54,spaced,incongruent,0.564561128616333,0
55,spaced,congruent,0.909664869308472,1
56,spaced,incongruent,1.43309736251831,1
57,unspaced,incongruent,1.70216488838196,1
58,spaced,neutral,2.63371777534485,1
59,unspaced,congruent,0.982810020446777,1
60,unspaced,congruent,1.35760927200317,1
1,unspaced,congruent,2.55850648880005,1
2,unspaced,incongruent,0.848437786102295,1
3,unspaced,congruent,0.7091383934021,1
4,spaced,incongruent,0.631609678268433,1
5,unspaced,neutral,1.19837379455566,1
6,spaced,congruent,0.868561744689941,1
7,spaced,neutral,0.626011610031128,0
8,spaced,neutral,1.05510902404785,1
9,spaced,congruent,1.91303062438965,1
10,unspaced,incongruent,2.14696598052979,1
11,unspaced,neutral,1.24229264259338,1
12,spaced,incongruent,0.946683883666992,1
13,spaced,congruent,0.552626609802246,1
14,spaced,congruent,0.897804975509644,1
15,spaced,neutral,1.5265007019043,1
16,unspaced,incongruent,1.58859658241272,1
17,unspaced,congruent,1.20760989189148,1
18,unspaced,neutral,3.06108784675598,1
19,unspaced,congruent,1.02092528343201,1
20,spaced,incongruent,0.853404521942139,1
21,spaced,incongruent,0.811482429504395,1
22,unspaced,neutral,0.741742372512817,1
23,unspaced,incongruent,1.38437294960022,1
24,spaced,neutral,0.834666728973389,1
25,spaced,incongruent,0.644028425216675,1
26,unspaced,congruent,2.00306415557861,1
27,unspaced,neutral,0.953696250915527,1
28,spaced,neutral,3.74384236335754,1
29,spaced,congruent,1.01526951789856,1
30,spaced,incongruent,1.58897495269775,1
31,unspaced,incongruent,0.780122756958008,1
32,spaced,congruent,0.680716514587402,1
33,unspaced,incongruent,2.40447759628296,1
34,unspaced,neutral,1.84815073013306,1
35,spaced,neutral,0.949395656585693,1
36,unspaced,congruent,1.76509189605713,1
37,spaced,neutral,0.964149951934814,1
38,spaced,incongruent,2.74282598495483,1
39,spaced,congruent,1.97410655021667,1
40,unspaced,congruent,0.863149166107178,1
41,spaced,neutral,0.712362766265869,1
42,spaced,incongruent,0.610474109649658,1
43,unspaced,neutral,0.648714780807495,1
44,unspaced,incongruent,0.821553945541382,1
45,unspaced,incongruent,0.73302149772644,1
46,spaced,congruent,0.520941019058228,1
47,unspaced,congruent,1.10530686378479,1
48,unspaced,neutral,0.688785076141357,1
49,spaced,incongruent,3.46950197219849,1
50,spaced,congruent,1.9710066318512,1
51,unspaced,incongruent,2.85540461540222,1
52,unspaced,neutral,2.43856310844421,1
53,spaced,congruent,1.28921175003052,1
54,spaced,neutral,0.717208623886108,1
55,spaced,incongruent,6.48640275001526,1
56,unspaced,neutral,0.576738834381104,1
57,unspaced,congruent,0.597383975982666,1
58,unspaced,congruent,0.432319164276123,1
59,spaced,neutral,0.762224912643433,1
60,unspaced,incongruent,2.75128030776978,1
1,spaced,incongruent,1.27992010116577,1
2,spaced,congruent,0.639854669570923,1
3,spaced,incongruent,0.794377326965332,1
4,unspaced,incongruent,1.23455309867859,1
5,unspaced,incongruent,2.25380301475525,1
6,spaced,neutral,0.665054798126221,0
7,spaced,neutral,1.28765511512756,1
8,spaced,congruent,0.505686521530151,1
9,unspaced,congruent,0.571286916732788,1
10,unspaced,neutral,0.649758338928223,1
11,unspaced,neutral,0.873611211776733,1
12,unspaced,congruent,0.801745653152466,1
13,spaced,congruent,0.410772562026978,1
14,unspaced,incongruent,1.86702418327332,1
15,spaced,incongruent,2.03045129776001,1
16,unspaced,congruent,1.0445716381073,1
17,spaced,incongruent,2.76228785514832,1
18,unspaced,congruent,2.24599313735962,1
19,unspaced,incongruent,0.917319059371948,1
20,spaced,congruent,0.574859380722046,1
21,spaced,neutral,0.784167528152466,1
22,spaced,neutral,0.654735326766968,1
23,unspaced,neutral,0.79987645149231,1
24,unspaced,neutral,0.738677024841309,1
25,unspaced,neutral,0.72297739982605,1
26,spaced,incongruent,0.982089042663574,1
27,unspaced,neutral,0.80010986328125,1
28,spaced,congruent,0.763527393341064,1
29,unspaced,incongruent,0.816005229949951,1
30,spaced,incongruent,1.17718982696533,1
31,unspaced,congruent,0.543248414993286,1
32,spaced,congruent,0.649707317352295,1
33,unspaced,congruent,1.58048152923584,1
34,unspaced,incongruent,1.52406764030457,1
35,spaced,neutral,0.864781379699707,0
36,spaced,neutral,0.897237539291382,1
37,unspaced,congruent,0.87881326675415,1
38,spaced,congruent,0.754961013793945,1
39,unspaced,incongruent,3.73937058448792,1
40,spaced,congruent,2.16947841644287,0
41,spaced,incongruent,1.47755718231201,1
42,spaced,incongruent,2.13225054740906,1
43,spaced,neutral,0.654073476791382,1
44,unspaced,incongruent,5.77285528182983,1
45,spaced,neutral,0.805339574813843,1
46,unspaced,neutral,0.783042192459106,1
47,unspaced,neutral,0.783340215682983,1
48,unspaced,congruent,0.734550714492798,1
49,unspaced,neutral,0.800950765609741,1
50,unspaced,congruent,6.2188982963562,1
51,spaced,incongruent,0.90730357170105,1
52,unspaced,incongruent,2.58523964881897,1
53,spaced,congruent,0.888558626174927,1
54,unspaced,incongruent,1.84748554229736,1
55,spaced,congruent,1.14313292503357,1
56,unspaced,congruent,0.713916540145874,1
57,spaced,incongruent,0.987694501876831,1
58,spaced,neutral,0.816065311431885,0
59,unspaced,neutral,1.19077157974243,1
60,spaced,neutral,1.14175057411194,1
1,spaced,incongruent,1.02561569213867,1
2,unspaced,neutral,0.786223411560059,1
3,unspaced,incongruent,0.793845653533936,1
4,spaced,incongruent,0.432506084442139,1
5,unspaced,incongruent,0.511203527450562,0
6,unspaced,congruent,0.785046100616455,1
7,unspaced,congruent,0.476814746856689,1
8,spaced,neutral,0.715655088424683,1
9,unspaced,neutral,0.589868545532227,1
10,spaced,congruent,0.682867288589478,1
11,spaced,neutral,1.12615251541138,1
12,spaced,congruent,1.36034345626831,1
13,spaced,neutral,0.833542823791504,1
14,spaced,congruent,1.36414980888367,1
15,unspaced,neutral,0.91990327835083,1
16,spaced,congruent,0.943010091781616,1
17,unspaced,incongruent,2.24724054336548,1
18,unspaced,neutral,0.653112411499023,1
19,spaced,incongruent,2.69315385818481,0
20,unspaced,congruent,2.88488054275513,1
21,unspaced,congruent,0.867011785507202,1
22,spaced,neutral,0.874988317489624,1
23,spaced,incongruent,1.19560313224792,1
24,unspaced,incongruent,1.81638646125793,1
25,spaced,neutral,1.22051000595093,1
26,unspaced,incongruent,2.06588578224182,1
27,spaced,congruent,1.04640054702759,1
28,unspaced,incongruent,3.27478671073914,1
29,spaced,incongruent,3.44780921936035,1
30,unspaced,congruent,1.82948446273804,1
31,spaced,congruent,2.7849006652832,1
32,spaced,incongruent,1.30734539031982,1
33,spaced,neutral,0.821723937988281,1
34,unspaced,neutral,1.64722299575806,1
35,unspaced,congruent,0.805034637451172,1
36,unspaced,neutral,1.91055083274841,1
37,spaced,congruent,0.935301065444946,0
38,spaced,congruent,1.92898678779602,0
39,unspaced,incongruent,1.0484676361084,1
40,spaced,incongruent,6.75614023208618,1
41,unspaced,neutral,0.664340019226074,1
42,unspaced,neutral,0.984178304672241,0
43,unspaced,incongruent,1.24824285507202,1
44,spaced,neutral,0.828231334686279,1
45,spaced,neutral,0.989267826080322,1
46,spaced,incongruent,0.563461542129517,0
47,unspaced,congruent,0.925843000411987,1
48,unspaced,congruent,1.33217597007751,1
49,spaced,incongruent,0.897602796554565,0
50,unspaced,incongruent,1.24111437797546,0
51,unspaced,neutral,1.59924507141113,1
52,unspaced,incongruent,1.67988657951355,1
53,unspaced,neutral,0.810546875,1
54,spaced,congruent,0.677269220352173,1
55,spaced,neutral,0.531095027923584,1
56,spaced,congruent,0.670721530914307,1
57,unspaced,congruent,0.872870445251465,1
58,spaced,incongruent,1.14314436912537,1
59,unspaced,congruent,1.22198271751404,1
60,spaced,neutral,0.88563084602356,1
