Trial,Spacing,Congruent,RT,Accuracy
1,spaced,incongruent,1.27992010116577,1
2,spaced,congruent,0.639854669570923,1
3,spaced,incongruent,0.794377326965332,1
4,unspaced,incongruent,1.23455309867859,1
5,unspaced,incongruent,2.25380301475525,1
6,spaced,neutral,0.665054798126221,0
7,spaced,neutral,1.28765511512756,1
8,spaced,congruent,0.505686521530151,1
9,unspaced,congruent,0.571286916732788,1
10,unspaced,neutral,0.649758338928223,1
11,unspaced,neutral,0.873611211776733,1
12,unspaced,congruent,0.801745653152466,1
13,spaced,congruent,0.410772562026978,1
14,unspaced,incongruent,1.86702418327332,1
15,spaced,incongruent,2.03045129776001,1
16,unspaced,congruent,1.0445716381073,1
17,spaced,incongruent,2.76228785514832,1
18,unspaced,congruent,2.24599313735962,1
19,unspaced,incongruent,0.917319059371948,1
20,spaced,congruent,0.574859380722046,1
21,spaced,neutral,0.784167528152466,1
22,spaced,neutral,0.654735326766968,1
23,unspaced,neutral,0.79987645149231,1
24,unspaced,neutral,0.738677024841309,1
25,unspaced,neutral,0.72297739982605,1
26,spaced,incongruent,0.982089042663574,1
27,unspaced,neutral,0.80010986328125,1
28,spaced,congruent,0.763527393341064,1
29,unspaced,incongruent,0.816005229949951,1
30,spaced,incongruent,1.17718982696533,1
31,unspaced,congruent,0.543248414993286,1
32,spaced,congruent,0.649707317352295,1
33,unspaced,congruent,1.58048152923584,1
34,unspaced,incongruent,1.52406764030457,1
35,spaced,neutral,0.864781379699707,0
36,spaced,neutral,0.897237539291382,1
37,unspaced,congruent,0.87881326675415,1
38,spaced,congruent,0.754961013793945,1
39,unspaced,incongruent,3.73937058448792,1
40,spaced,congruent,2.16947841644287,0
41,spaced,incongruent,1.47755718231201,1
42,spaced,incongruent,2.13225054740906,1
43,spaced,neutral,0.654073476791382,1
44,unspaced,incongruent,5.77285528182983,1
45,spaced,neutral,0.805339574813843,1
46,unspaced,neutral,0.783042192459106,1
47,unspaced,neutral,0.783340215682983,1
48,unspaced,congruent,0.734550714492798,1
49,unspaced,neutral,0.800950765609741,1
50,unspaced,congruent,6.2188982963562,1
51,spaced,incongruent,0.90730357170105,1
52,unspaced,incongruent,2.58523964881897,1
53,spaced,congruent,0.888558626174927,1
54,unspaced,incongruent,1.84748554229736,1
55,spaced,congruent,1.14313292503357,1
56,unspaced,congruent,0.713916540145874,1
57,spaced,incongruent,0.987694501876831,1
58,spaced,neutral,0.816065311431885,0
59,unspaced,neutral,1.19077157974243,1
60,spaced,neutral,1.14175057411194,1
1,spaced,incongruent,1.02561569213867,1
2,unspaced,neutral,0.786223411560059,1
3,unspaced,incongruent,0.793845653533936,1
4,spaced,incongruent,0.432506084442139,1
5,unspaced,incongruent,0.511203527450562,0
6,unspaced,congruent,0.785046100616455,1
7,unspaced,congruent,0.476814746856689,1
8,spaced,neutral,0.715655088424683,1
9,unspaced,neutral,0.589868545532227,1
10,spaced,congruent,0.682867288589478,1
11,spaced,neutral,1.12615251541138,1
12,spaced,congruent,1.36034345626831,1
13,spaced,neutral,0.833542823791504,1
14,spaced,congruent,1.36414980888367,1
15,unspaced,neutral,0.91990327835083,1
16,spaced,congruent,0.943010091781616,1
17,unspaced,incongruent,2.24724054336548,1
18,unspaced,neutral,0.653112411499023,1
19,spaced,incongruent,2.69315385818481,0
20,unspaced,congruent,2.88488054275513,1
21,unspaced,congruent,0.867011785507202,1
22,spaced,neutral,0.874988317489624,1
23,spaced,incongruent,1.19560313224792,1
24,unspaced,incongruent,1.81638646125793,1
25,spaced,neutral,1.22051000595093,1
26,unspaced,incongruent,2.06588578224182,1
27,spaced,congruent,1.04640054702759,1
28,unspaced,incongruent,3.27478671073914,1
29,spaced,incongruent,3.44780921936035,1
30,unspaced,congruent,1.82948446273804,1
31,spaced,congruent,2.7849006652832,1
32,spaced,incongruent,1.30734539031982,1
33,spaced,neutral,0.821723937988281,1
34,unspaced,neutral,1.64722299575806,1
35,unspaced,congruent,0.805034637451172,1
36,unspaced,neutral,1.91055083274841,1
37,spaced,congruent,0.935301065444946,0
38,spaced,congruent,1.92898678779602,0
39,unspaced,incongruent,1.0484676361084,1
40,spaced,incongruent,6.75614023208618,1
41,unspaced,neutral,0.664340019226074,1
42,unspaced,neutral,0.984178304672241,0
43,unspaced,incongruent,1.24824285507202,1
44,spaced,neutral,0.828231334686279,1
45,spaced,neutral,0.989267826080322,1
46,spaced,incongruent,0.563461542129517,0
47,unspaced,congruent,0.925843000411987,1
48,unspaced,congruent,1.33217597007751,1
49,spaced,incongruent,0.897602796554565,0
50,unspaced,incongruent,1.24111437797546,0
51,unspaced,neutral,1.59924507141113,1
52,unspaced,incongruent,1.67988657951355,1
53,unspaced,neutral,0.810546875,1
54,spaced,congruent,0.677269220352173,1
55,spaced,neutral,0.531095027923584,1
56,spaced,congruent,0.670721530914307,1
57,unspaced,congruent,0.872870445251465,1
58,spaced,incongruent,1.14314436912537,1
59,unspaced,congruent,1.22198271751404,1
60,spaced,neutral,0.88563084602356,1
1,unspaced,neutral,1.05710411071777,1
2,unspaced,neutral,1.38243317604065,1
3,spaced,congruent,0.531781911849976,1
4,unspaced,incongruent,1.10828876495361,1
5,unspaced,congruent,0.646500587463379,1
6,spaced,incongruent,0.652663230895996,1
7,unspaced,incongruent,0.684577465057373,1
8,spaced,neutral,0.621617317199707,1
9,spaced,congruent,0.640661478042603,1
10,spaced,incongruent,0.797793388366699,1
11,spaced,neutral,0.590393543243408,1
12,unspaced,congruent,0.491973638534546,1
13,unspaced,congruent,0.502826452255249,1
14,unspaced,incongruent,0.660681962966919,1
15,spaced,congruent,0.735606670379639,1
16,spaced,neutral,0.558064222335815,1
17,spaced,congruent,0.65759801864624,1
18,unspaced,congruent,0.750596523284912,0
19,spaced,incongruent,0.720017433166504,1
20,spaced,incongruent,0.489156484603882,1
21,spaced,neutral,1.10678863525391,1
22,unspaced,neutral,0.499145269393921,1
23,unspaced,incongruent,0.685600280761719,1
24,unspaced,neutral,0.528983354568481,1
25,spaced,incongruent,0.893210649490356,1
26,unspaced,incongruent,0.751577615737915,1
27,unspaced,congruent,0.640342235565186,1
28,unspaced,neutral,0.599023342132568,1
29,unspaced,incongruent,0.677606105804443,1
30,spaced,incongruent,0.945748329162598,1
31,unspaced,congruent,0.810176134109497,1
32,spaced,neutral,0.634207010269165,1
33,spaced,congruent,0.684059143066406,1
34,spaced,neutral,0.614654779434204,1
35,spaced,congruent,0.855814933776855,1
36,unspaced,neutral,1.2969708442688,1
37,unspaced,incongruent,2.43791151046753,1
38,unspaced,incongruent,0.608473062515259,1
39,spaced,neutral,0.563709497451782,1
40,unspaced,neutral,0.546921730041504,1
41,spaced,congruent,0.619988441467285,1
42,spaced,neutral,0.664901971817017,1
43,spaced,congruent,0.834671258926392,1
44,unspaced,congruent,0.594840526580811,1
45,spaced,incongruent,0.743449926376343,1
46,unspaced,congruent,0.54735541343689,1
47,spaced,incongruent,0.608016967773438,1
48,unspaced,neutral,0.512918710708618,1
49,unspaced,neutral,0.576005697250366,1
50,unspaced,incongruent,0.727735996246338,1
51,spaced,congruent,0.699434280395508,1
52,unspaced,congruent,0.540373086929321,1
53,unspaced,incongruent,0.784728765487671,1
54,unspaced,neutral,0.639812469482422,1
55,spaced,incongruent,0.605195999145508,1
56,unspaced,congruent,0.617034435272217,1
57,spaced,incongruent,0.603015422821045,1
58,spaced,congruent,0.610554695129395,1
59,spaced,neutral,1.36842751502991,1
60,spaced,neutral,0.591387748718262,1
1,unspaced,neutral,0.602059125900269,1
2,spaced,neutral,0.608347177505493,1
3,spaced,incongruent,5.03119993209839,1
4,unspaced,incongruent,0.996681690216064,1
5,spaced,congruent,0.841256856918335,1
6,spaced,neutral,0.619818687438965,1
7,unspaced,congruent,0.723267078399658,1
8,spaced,incongruent,1.48822808265686,1
9,unspaced,congruent,0.727272033691406,1
10,unspaced,incongruent,0.640580177307129,1
11,spaced,congruent,0.672985076904297,1
12,unspaced,neutral,0.585812568664551,1
13,spaced,neutral,0.64069938659668,1
14,unspaced,incongruent,0.594082355499268,1
15,spaced,incongruent,1.19966125488281,1
16,spaced,congruent,0.653457403182983,1
17,unspaced,neutral,0.80014967918396,1
18,unspaced,neutral,0.971040487289429,1
19,spaced,congruent,0.617071866989136,1
20,unspaced,congruent,0.630923509597778,1
21,unspaced,incongruent,0.710108041763306,1
22,unspaced,congruent,1.15608143806458,1
23,spaced,neutral,0.639012098312378,1
24,spaced,incongruent,0.474541425704956,1
25,spaced,incongruent,0.68617844581604,1
26,spaced,incongruent,0.709197759628296,1
27,unspaced,neutral,0.675492286682129,1
28,unspaced,congruent,0.598896741867065,1
29,spaced,congruent,0.576866865158081,1
30,unspaced,congruent,0.589361906051636,1
31,unspaced,neutral,0.823852062225342,1
32,spaced,neutral,0.882248640060425,1
33,spaced,congruent,0.903155088424683,1
34,unspaced,incongruent,0.768796682357788,1
35,unspaced,incongruent,0.996670961380005,1
36,spaced,neutral,0.794368028640747,1
37,spaced,neutral,0.663333415985107,1
38,spaced,congruent,1.36347103118896,1
39,spaced,incongruent,1.66732597351074,1
40,unspaced,incongruent,1.01195764541626,0
41,unspaced,incongruent,1.36212515830994,1
42,unspaced,neutral,0.464459896087646,1
43,unspaced,neutral,1.10015153884888,1
44,spaced,congruent,0.76679515838623,1
45,spaced,incongruent,0.652965545654297,1
46,unspaced,congruent,1.84103226661682,1
47,spaced,neutral,0.721526622772217,1
48,unspaced,congruent,0.769597053527832,1
49,spaced,neutral,0.561892032623291,1
50,spaced,incongruent,0.773921251296997,1
51,unspaced,neutral,0.771576166152954,1
52,unspaced,incongruent,0.716522455215454,1
53,spaced,congruent,0.654989719390869,1
54,spaced,neutral,0.668313026428223,1
55,unspaced,congruent,0.568952560424805,1
56,unspaced,incongruent,0.726694107055664,1
57,unspaced,congruent,0.558722972869873,1
58,unspaced,neutral,0.575531721115112,1
59,spaced,incongruent,1.21018147468567,1
60,spaced,congruent,0.485814094543457,1
