Trial,Spacing,Congruent,RT,Accuracy
1,spaced,congruent,1.11592888832092,1
2,unspaced,congruent,0.859547138214111,1
3,spaced,neutral,0.655641317367554,1
4,spaced,neutral,0.613368034362793,1
5,unspaced,congruent,0.600647926330566,1
6,unspaced,neutral,0.682997226715088,1
7,unspaced,neutral,0.655250310897827,1
8,spaced,incongruent,0.675984144210815,1
9,unspaced,incongruent,0.751424074172974,1
10,spaced,congruent,0.704630851745605,1
11,spaced,incongruent,0.818553686141968,1
12,unspaced,incongruent,1.39601492881775,1
13,unspaced,neutral,0.986685276031494,1
14,unspaced,incongruent,0.790840864181519,1
15,spaced,incongruent,0.673879384994507,1
16,unspaced,congruent,0.81280255317688,1
17,spaced,neutral,0.629875183105469,1
18,spaced,incongruent,1.07464075088501,1
19,spaced,neutral,0.596883296966553,1
20,unspaced,neutral,0.68735933303833,0
21,unspaced,incongruent,0.743808269500732,1
22,spaced,congruent,0.602829217910767,1
23,unspaced,congruent,0.553829908370972,1
24,spaced,congruent,0.59498143196106,1
25,unspaced,neutral,0.762300252914429,1
26,unspaced,incongruent,3.13031649589539,1
27,spaced,congruent,1.91719889640808,1
28,spaced,congruent,0.945097923278809,1
29,spaced,neutral,0.772998332977295,1
30,unspaced,congruent,0.763137817382812,1
31,spaced,neutral,0.626362085342407,1
32,unspaced,neutral,0.589441776275635,1
33,unspaced,congruent,0.492221355438232,1
34,spaced,incongruent,0.671326637268066,1
35,unspaced,incongruent,0.49903392791748,0
36,spaced,incongruent,0.700895309448242,1
37,spaced,neutral,0.437101602554321,1
38,unspaced,congruent,0.518462181091309,1
39,unspaced,incongruent,0.756067276000977,1
40,unspaced,congruent,0.670871734619141,1
41,spaced,neutral,0.512542009353638,1
42,spaced,congruent,0.487157344818115,1
43,unspaced,neutral,0.511606693267822,1
44,unspaced,incongruent,0.872761726379395,1
45,spaced,incongruent,0.819016456604004,1
46,unspaced,neutral,0.60923433303833,1
47,spaced,congruent,0.576611995697021,1
48,spaced,incongruent,0.668346166610718,1
49,spaced,neutral,0.563849687576294,1
50,unspaced,congruent,0.636122465133667,1
51,spaced,congruent,0.756892919540405,1
52,unspaced,neutral,1.29511523246765,1
53,spaced,incongruent,1.32857346534729,1
54,unspaced,neutral,0.688128471374512,1
55,unspaced,incongruent,0.965481042861938,1
56,unspaced,incongruent,1.53419327735901,1
57,unspaced,congruent,0.831659317016602,1
58,spaced,congruent,0.80526876449585,1
59,spaced,neutral,0.665696859359741,1
60,spaced,incongruent,0.808211803436279,1
1,unspaced,incongruent,2.47835779190063,1
2,spaced,incongruent,0.695372104644775,1
3,unspaced,neutral,0.677660465240479,1
4,unspaced,neutral,0.607271671295166,1
5,unspaced,congruent,0.653166055679321,1
6,unspaced,congruent,0.907083988189697,1
7,spaced,congruent,0.551117897033691,1
8,unspaced,incongruent,0.453803062438965,0
9,spaced,congruent,0.672571420669556,1
10,spaced,neutral,0.558156251907349,1
11,spaced,incongruent,0.619775056838989,1
12,spaced,neutral,0.549158573150635,1
13,spaced,congruent,0.582917451858521,1
14,spaced,neutral,0.542824029922485,1
15,spaced,neutral,0.534359931945801,1
16,unspaced,neutral,0.341536521911621,1
17,spaced,incongruent,0.487972497940063,1
18,unspaced,incongruent,0.739221572875977,1
19,unspaced,congruent,0.476825714111328,1
20,unspaced,neutral,0.513862133026123,1
21,spaced,incongruent,0.765700578689575,1
22,spaced,congruent,0.637700796127319,1
23,unspaced,congruent,0.72965407371521,1
24,unspaced,incongruent,1.01581692695618,0
25,spaced,incongruent,0.602840662002563,1
26,spaced,neutral,0.610198497772217,1
27,unspaced,incongruent,0.934956550598145,1
28,unspaced,congruent,0.951788663864136,1
29,spaced,neutral,0.479233503341675,1
30,spaced,congruent,0.522812604904175,1
31,unspaced,incongruent,1.20303702354431,1
32,spaced,congruent,0.728209495544434,1
33,unspaced,congruent,0.818646430969238,1
34,unspaced,neutral,0.922031879425049,1
35,unspaced,neutral,1.10905408859253,1
36,spaced,incongruent,2.09394884109497,1
37,unspaced,congruent,1.27144813537598,1
38,spaced,neutral,0.586869955062866,1
39,unspaced,incongruent,2.11843013763428,0
40,spaced,incongruent,1.79790806770325,1
41,spaced,congruent,1.22704887390137,1
42,unspaced,incongruent,1.26485681533813,1
43,unspaced,neutral,1.65354156494141,1
44,spaced,incongruent,0.778285980224609,1
45,unspaced,neutral,0.60376763343811,1
46,unspaced,congruent,0.512324333190918,1
47,spaced,neutral,1.09890675544739,1
48,spaced,congruent,0.605830430984497,1
49,unspaced,neutral,0.824388027191162,1
50,unspaced,neutral,0.965197563171387,1
51,unspaced,congruent,0.634773015975952,1
52,spaced,incongruent,0.831443786621094,1
53,spaced,congruent,0.702345848083496,0
54,spaced,congruent,0.575403690338135,1
55,spaced,neutral,0.55942702293396,1
56,unspaced,congruent,0.522250652313232,1
57,spaced,neutral,0.63418436050415,1
58,unspaced,incongruent,0.750630617141724,1
59,spaced,incongruent,0.680436849594116,1
60,unspaced,incongruent,0.707138776779175,1
1,spaced,congruent,1.10236620903015,1
2,spaced,incongruent,0.587599754333496,1
3,unspaced,neutral,0.578539609909058,1
4,spaced,congruent,0.498739957809448,1
5,spaced,neutral,0.511587381362915,1
6,spaced,neutral,0.514110565185547,1
7,unspaced,congruent,0.588010549545288,1
8,unspaced,congruent,0.570041179656982,1
9,unspaced,incongruent,0.747671604156494,1
10,unspaced,neutral,0.619516372680664,1
11,unspaced,incongruent,0.548019886016846,0
12,spaced,incongruent,0.600370168685913,1
13,spaced,neutral,0.487790107727051,1
14,unspaced,incongruent,0.603447437286377,0
15,unspaced,congruent,0.510510444641113,1
16,spaced,neutral,0.693040132522583,1
17,spaced,incongruent,2.6959445476532,1
18,spaced,congruent,0.613241672515869,1
19,unspaced,incongruent,0.73950719833374,1
20,spaced,congruent,0.63504695892334,1
21,unspaced,neutral,0.57690691947937,1
22,unspaced,congruent,0.767399311065674,1
23,spaced,incongruent,0.656733512878418,1
24,unspaced,neutral,0.781340360641479,1
25,unspaced,neutral,0.622482299804688,1
26,spaced,incongruent,0.832241535186768,1
27,spaced,congruent,0.513205528259277,1
28,spaced,congruent,0.511895656585693,1
29,spaced,neutral,0.754929780960083,1
30,spaced,incongruent,0.71720290184021,1
31,unspaced,neutral,0.486769437789917,1
32,spaced,neutral,0.50339150428772,1
33,unspaced,congruent,0.925437927246094,1
34,unspaced,incongruent,0.749013423919678,1
35,unspaced,incongruent,0.505413293838501,0
36,unspaced,congruent,0.690728187561035,1
37,spaced,neutral,0.420624732971191,0
38,unspaced,congruent,0.64870548248291,1
39,unspaced,incongruent,2.1688539981842,1
40,unspaced,incongruent,1.74407029151917,1
41,spaced,incongruent,0.736072778701782,1
42,unspaced,neutral,0.61209511756897,1
43,unspaced,congruent,0.631683826446533,1
44,unspaced,neutral,0.64354133605957,1
45,spaced,congruent,0.200376272201538,0
46,spaced,congruent,0.735015153884888,1
47,spaced,incongruent,1.82961893081665,1
48,spaced,neutral,2.87201023101807,1
49,spaced,neutral,1.95371532440186,1
50,unspaced,congruent,0.739701509475708,1
51,unspaced,neutral,1.80781865119934,1
52,unspaced,congruent,0.811927080154419,1
53,unspaced,incongruent,1.20825028419495,1
54,spaced,neutral,0.789475202560425,1
55,spaced,congruent,0.982702970504761,0
56,spaced,incongruent,1.38191246986389,1
57,spaced,congruent,0.920359373092651,1
58,spaced,incongruent,0.807509899139404,0
59,unspaced,incongruent,2.04595351219177,1
60,unspaced,neutral,1.21204948425293,1
1,unspaced,congruent,0.626227140426636,1
2,unspaced,neutral,0.527775287628174,1
3,unspaced,incongruent,0.625779390335083,0
4,spaced,congruent,0.594430446624756,1
5,spaced,incongruent,0.747888803482056,1
6,spaced,neutral,0.472079753875732,1
7,spaced,incongruent,0.434364080429077,0
8,spaced,neutral,0.547169923782349,1
9,unspaced,congruent,0.476841926574707,1
10,spaced,congruent,0.438410758972168,1
11,unspaced,incongruent,0.809016466140747,1
12,unspaced,neutral,0.671587944030762,1
13,unspaced,incongruent,0.740955829620361,1
14,unspaced,neutral,0.605551958084106,1
15,spaced,neutral,0.532792568206787,1
16,spaced,incongruent,0.628699064254761,1
17,spaced,congruent,0.492552518844604,1
18,unspaced,neutral,0.567449569702148,1
19,spaced,neutral,0.646613121032715,1
20,unspaced,incongruent,0.729953289031982,0
21,spaced,incongruent,0.608781337738037,1
22,unspaced,congruent,0.595334768295288,1
23,spaced,congruent,0.528773546218872,1
24,unspaced,congruent,0.604936838150024,0
25,spaced,incongruent,0.728994607925415,1
26,unspaced,incongruent,1.07822847366333,1
27,spaced,congruent,0.506436347961426,1
28,unspaced,incongruent,0.331617116928101,0
29,spaced,neutral,0.443154811859131,1
30,spaced,congruent,0.255460739135742,1
31,spaced,neutral,0.222179651260376,0
32,unspaced,congruent,0.309638023376465,0
33,spaced,incongruent,0.999310255050659,1
34,unspaced,congruent,0.428479433059692,1
35,unspaced,neutral,0.576462268829346,1
36,unspaced,neutral,0.487769365310669,1
37,unspaced,congruent,0.523093700408936,1
38,spaced,congruent,0.42457127571106,1
39,unspaced,neutral,0.430461168289185,1
40,unspaced,incongruent,0.688860893249512,1
41,spaced,neutral,0.548727750778198,1
42,spaced,incongruent,0.621292114257812,1
43,unspaced,neutral,0.75910496711731,1
44,unspaced,congruent,0.81794548034668,1
45,spaced,congruent,0.660913705825806,1
46,spaced,neutral,0.620774269104004,1
47,spaced,incongruent,0.966649055480957,0
48,unspaced,incongruent,0.788986682891846,1
49,unspaced,incongruent,1.39527630805969,0
50,unspaced,incongruent,2.72973132133484,1
51,unspaced,congruent,1.86114120483398,1
52,spaced,neutral,1.51130819320679,1
53,unspaced,neutral,1.14084315299988,1
54,spaced,congruent,0.833741664886475,1
55,spaced,neutral,0.611175298690796,1
56,spaced,incongruent,0.629116058349609,1
57,unspaced,congruent,0.690964221954346,1
58,spaced,congruent,0.784498929977417,1
59,unspaced,neutral,0.702043533325195,1
60,spaced,incongruent,1.38607454299927,1
