Trial,Spacing,Congruent,RT,Accuracy
1,unspaced,incongruent,1.0160391330719,1
2,unspaced,neutral,0.522142887115479,1
3,spaced,neutral,0.653561592102051,1
4,unspaced,congruent,0.461050033569336,1
5,unspaced,congruent,0.367262125015259,1
6,spaced,congruent,0.449963092803955,1
7,spaced,incongruent,0.622025728225708,1
8,spaced,congruent,0.49017858505249,1
9,spaced,neutral,0.644412755966187,1
10,spaced,incongruent,0.515001058578491,0
11,unspaced,neutral,0.422136068344116,1
12,unspaced,incongruent,0.669485569000244,1
13,unspaced,incongruent,0.66989278793335,1
14,spaced,congruent,0.468632936477661,1
15,spaced,congruent,0.469289064407349,1
16,unspaced,congruent,0.461359977722168,1
17,spaced,neutral,0.482148170471191,1
18,unspaced,incongruent,0.610887289047241,1
19,unspaced,neutral,0.563288450241089,1
20,unspaced,congruent,0.705310821533203,1
21,spaced,incongruent,0.572656631469727,1
22,unspaced,neutral,0.459680080413818,1
23,spaced,neutral,0.592588901519775,1
24,spaced,incongruent,0.686055421829224,1
25,spaced,neutral,0.48335862159729,1
26,unspaced,incongruent,0.635254859924316,1
27,spaced,congruent,0.572681427001953,1
28,unspaced,neutral,0.500674962997437,1
29,unspaced,congruent,0.51707124710083,1
30,spaced,incongruent,0.488356590270996,1
31,spaced,incongruent,0.650644302368164,1
32,spaced,neutral,0.655361175537109,1
33,spaced,congruent,0.557286739349365,1
34,unspaced,congruent,0.560199022293091,1
35,unspaced,incongruent,0.711526393890381,1
36,unspaced,neutral,0.569392919540405,1
37,spaced,incongruent,0.519466400146484,1
38,spaced,incongruent,0.644248247146606,1
39,unspaced,congruent,0.514538764953613,1
40,unspaced,neutral,0.476679086685181,1
41,spaced,congruent,0.477334976196289,1
42,spaced,neutral,0.476568460464478,1
43,spaced,congruent,0.405070066452026,1
44,unspaced,incongruent,0.414168834686279,0
45,spaced,neutral,0.514509677886963,1
46,unspaced,congruent,0.502043485641479,1
47,unspaced,incongruent,0.697569131851196,1
48,unspaced,neutral,0.684724092483521,1
49,spaced,neutral,0.478734493255615,1
50,spaced,neutral,0.708392143249512,1
51,spaced,incongruent,0.602958917617798,1
52,unspaced,neutral,0.6514573097229,1
53,spaced,congruent,0.637109041213989,1
54,unspaced,incongruent,0.539451122283936,0
55,unspaced,neutral,0.550662040710449,1
56,unspaced,incongruent,0.68435001373291,1
57,spaced,congruent,0.515826463699341,1
58,spaced,incongruent,0.668281078338623,1
59,unspaced,congruent,0.600739002227783,1
60,unspaced,congruent,0.646413564682007,1
1,unspaced,neutral,0.861509084701538,1
2,unspaced,neutral,0.509229898452759,1
3,spaced,neutral,0.482463836669922,1
4,spaced,congruent,0.589292049407959,1
5,unspaced,congruent,0.52204442024231,1
6,spaced,incongruent,0.543838500976562,1
7,unspaced,congruent,0.470107793807983,1
8,unspaced,incongruent,0.61881947517395,1
9,unspaced,incongruent,0.545755624771118,1
10,spaced,congruent,0.55582332611084,1
11,spaced,neutral,0.569772243499756,1
12,spaced,incongruent,0.668951988220215,1
13,unspaced,neutral,0.505362749099731,1
14,unspaced,incongruent,0.615716457366943,1
15,unspaced,incongruent,0.606559276580811,1
16,unspaced,congruent,0.518226146697998,1
17,spaced,congruent,0.691414833068848,1
18,unspaced,congruent,0.566852569580078,1
19,spaced,congruent,0.501392364501953,1
20,spaced,incongruent,0.600818157196045,1
21,spaced,neutral,0.487487316131592,1
22,spaced,neutral,0.530974388122559,1
23,unspaced,neutral,0.596070766448975,1
24,spaced,incongruent,0.751733541488647,1
25,spaced,neutral,0.458942651748657,1
26,unspaced,incongruent,0.526793241500854,1
27,unspaced,neutral,0.562210083007812,1
28,unspaced,neutral,0.514166116714478,1
29,spaced,incongruent,0.593632698059082,1
30,spaced,congruent,0.498304605484009,1
31,spaced,neutral,0.459543943405151,1
32,unspaced,incongruent,0.504039764404297,1
33,spaced,congruent,0.482758283615112,1
34,unspaced,congruent,0.516457080841064,1
35,unspaced,congruent,0.487492799758911,1
36,spaced,incongruent,0.419312000274658,1
37,unspaced,neutral,0.513030290603638,1
38,unspaced,congruent,0.495111227035522,1
39,spaced,incongruent,0.489581823348999,1
40,spaced,congruent,0.504755258560181,1
41,unspaced,incongruent,0.645976781845093,1
42,unspaced,incongruent,0.641619920730591,1
43,spaced,neutral,0.557156324386597,1
44,spaced,congruent,0.633789300918579,1
45,unspaced,neutral,0.487942695617676,1
46,spaced,neutral,0.472631454467773,1
47,unspaced,congruent,0.461227893829346,1
48,spaced,incongruent,0.591498613357544,1
49,spaced,congruent,0.485989570617676,1
50,spaced,incongruent,0.55616021156311,1
51,unspaced,congruent,0.449061632156372,1
52,unspaced,neutral,0.573489189147949,1
53,spaced,congruent,0.36626410484314,1
54,unspaced,incongruent,0.577004432678223,1
55,unspaced,neutral,0.488189458847046,1
56,spaced,neutral,0.44132399559021,1
57,spaced,neutral,0.592981100082397,1
58,unspaced,congruent,0.504370927810669,1
59,unspaced,incongruent,0.571530103683472,1
60,spaced,incongruent,0.697238445281982,1
1,spaced,neutral,0.584200143814087,1
2,unspaced,incongruent,0.557065010070801,1
3,unspaced,neutral,0.513593435287476,1
4,spaced,incongruent,0.392591238021851,0
5,spaced,neutral,0.574925184249878,1
6,spaced,congruent,0.494875907897949,1
7,spaced,incongruent,0.571029424667358,1
8,unspaced,neutral,0.477633714675903,1
9,unspaced,congruent,0.438936471939087,1
10,unspaced,congruent,0.504009485244751,1
11,unspaced,incongruent,0.421144962310791,0
12,spaced,congruent,0.500203609466553,1
13,spaced,incongruent,0.486248731613159,0
14,spaced,neutral,0.476648092269897,1
15,unspaced,neutral,0.508991956710815,1
16,spaced,congruent,0.435113906860352,1
17,spaced,congruent,0.792757511138916,1
18,unspaced,neutral,0.430352449417114,1
19,spaced,neutral,0.498763084411621,1
20,unspaced,congruent,0.477952003479004,1
21,unspaced,incongruent,0.481809139251709,0
22,spaced,incongruent,0.709543943405151,1
23,unspaced,incongruent,0.682666063308716,1
24,unspaced,congruent,0.508972644805908,1
25,unspaced,congruent,0.430575370788574,1
26,unspaced,neutral,0.565609931945801,1
27,unspaced,congruent,0.468668699264526,1
28,spaced,congruent,0.494784832000732,1
29,unspaced,incongruent,0.925857543945312,1
30,spaced,neutral,0.49295449256897,1
31,spaced,congruent,0.624881505966187,1
32,unspaced,incongruent,0.847249031066895,0
33,spaced,neutral,0.673061847686768,1
34,unspaced,neutral,0.489025354385376,1
35,spaced,incongruent,0.516040802001953,1
36,spaced,incongruent,0.61489462852478,1
37,unspaced,congruent,0.493129253387451,1
38,spaced,neutral,0.574944496154785,1
39,spaced,congruent,0.430176973342896,1
40,unspaced,neutral,0.493748426437378,1
41,spaced,neutral,0.499756097793579,1
42,unspaced,neutral,0.484031915664673,1
43,spaced,incongruent,0.660752534866333,1
44,spaced,incongruent,0.40821647644043,1
45,unspaced,congruent,0.50533652305603,1
46,unspaced,incongruent,0.681891679763794,1
47,unspaced,incongruent,0.59157133102417,1
48,spaced,congruent,0.518738985061646,1
49,unspaced,incongruent,0.645631074905396,1
50,spaced,neutral,0.684757471084595,0
51,spaced,congruent,0.44858455657959,1
52,unspaced,congruent,0.458534955978394,1
53,spaced,incongruent,0.584510087966919,1
54,spaced,incongruent,0.625138521194458,1
55,spaced,neutral,0.534697532653809,0
56,spaced,congruent,0.552949905395508,1
57,unspaced,congruent,0.5507972240448,1
58,unspaced,incongruent,0.830267906188965,1
59,unspaced,neutral,0.496651172637939,1
60,unspaced,neutral,0.686920881271362,1
1,spaced,congruent,0.788377523422241,1
2,spaced,incongruent,0.697484016418457,1
3,unspaced,incongruent,0.598266363143921,1
4,spaced,incongruent,0.605201959609985,1
5,unspaced,neutral,0.647391796112061,1
6,spaced,congruent,0.632597684860229,1
7,unspaced,incongruent,0.523068904876709,1
8,spaced,neutral,0.514894008636475,1
9,unspaced,congruent,0.368807554244995,1
10,spaced,neutral,0.377892971038818,0
11,unspaced,neutral,0.447556734085083,1
12,unspaced,congruent,0.452151775360107,1
13,unspaced,incongruent,0.645926475524902,1
14,spaced,neutral,0.452914476394653,1
15,spaced,congruent,0.472907543182373,1
16,unspaced,neutral,0.517414569854736,1
17,spaced,neutral,0.482322931289673,1
18,spaced,congruent,0.414268016815186,1
19,spaced,incongruent,0.595653057098389,1
20,unspaced,neutral,0.519593954086304,1
21,unspaced,congruent,0.482244491577148,1
22,spaced,incongruent,0.552631378173828,1
23,unspaced,incongruent,0.571043252944946,1
24,unspaced,congruent,0.497891664505005,1
25,unspaced,neutral,0.504915475845337,1
26,unspaced,neutral,0.532498121261597,1
27,unspaced,incongruent,0.648942470550537,1
28,unspaced,congruent,0.420181274414062,1
29,spaced,neutral,0.529896974563599,1
30,spaced,incongruent,0.621536016464233,1
31,spaced,congruent,0.363874673843384,1
32,spaced,neutral,0.432912349700928,1
33,spaced,incongruent,0.466218233108521,1
34,unspaced,congruent,0.714687347412109,1
35,unspaced,incongruent,0.768335819244385,1
36,spaced,congruent,0.359858751296997,1
37,spaced,neutral,0.622574806213379,1
38,spaced,neutral,0.526961803436279,1
39,unspaced,incongruent,0.880182027816772,1
40,spaced,incongruent,0.628232479095459,1
41,spaced,congruent,0.654261589050293,1
42,unspaced,congruent,0.532985925674438,1
43,spaced,congruent,0.446865081787109,1
44,unspaced,neutral,0.460120677947998,1
45,unspaced,neutral,0.480468988418579,1
46,spaced,incongruent,0.682523012161255,1
47,unspaced,incongruent,0.957190752029419,0
48,unspaced,congruent,0.406897068023682,1
49,spaced,incongruent,0.540088891983032,0
50,spaced,congruent,0.499399423599243,1
51,unspaced,neutral,0.599250078201294,1
52,spaced,congruent,0.449224472045898,1
53,unspaced,congruent,0.457735776901245,1
54,unspaced,incongruent,0.51399040222168,1
55,spaced,incongruent,0.516358852386475,1
56,unspaced,congruent,0.469000816345215,1
57,unspaced,neutral,0.575675487518311,1
58,spaced,neutral,0.406599283218384,1
59,spaced,neutral,0.438836336135864,1
60,unspaced,incongruent,0.364699840545654,0
