Trial,Spacing,Congruent,RT,Accuracy
1,unspaced,neutral,1.01923179626465,1
2,spaced,congruent,0.611698627471924,1
3,unspaced,incongruent,0.744879484176636,1
4,spaced,incongruent,0.771313428878784,1
5,unspaced,congruent,0.626951694488525,1
6,spaced,congruent,0.622883319854736,1
7,spaced,neutral,0.623811483383179,1
8,unspaced,neutral,0.659669876098633,1
9,spaced,neutral,0.518775701522827,1
10,unspaced,incongruent,0.82103967666626,1
11,unspaced,congruent,0.726766586303711,1
12,spaced,incongruent,0.751865386962891,1
13,unspaced,neutral,0.500708818435669,1
14,spaced,congruent,0.485757827758789,1
15,unspaced,neutral,0.567682981491089,1
16,unspaced,incongruent,0.806352138519287,1
17,spaced,neutral,0.828251838684082,1
18,spaced,neutral,0.675627708435059,1
19,unspaced,congruent,0.662082433700562,1
20,unspaced,incongruent,0.65173077583313,1
21,spaced,incongruent,0.737932205200195,1
22,spaced,incongruent,0.89744758605957,1
23,spaced,congruent,0.676669597625732,1
24,unspaced,congruent,0.597773313522339,1
25,unspaced,neutral,0.838159799575806,1
26,spaced,incongruent,0.795679807662964,1
27,unspaced,congruent,0.621114492416382,1
28,unspaced,incongruent,0.888191699981689,1
29,spaced,neutral,0.7757408618927,1
30,spaced,neutral,0.766737937927246,1
31,unspaced,neutral,0.781782865524292,1
32,unspaced,incongruent,1.79911088943481,0
33,unspaced,congruent,0.740216493606567,1
34,spaced,incongruent,0.779179573059082,1
35,spaced,congruent,0.539737701416016,1
36,spaced,congruent,0.586014032363892,1
37,spaced,incongruent,0.643337249755859,1
38,unspaced,incongruent,0.850124359130859,1
39,spaced,incongruent,0.803415775299072,1
40,spaced,congruent,0.577674388885498,1
41,spaced,neutral,0.706091403961182,1
42,unspaced,neutral,0.7132728099823,1
43,spaced,congruent,0.539269208908081,1
44,unspaced,congruent,0.563753366470337,1
45,unspaced,neutral,0.712260246276855,1
46,spaced,neutral,0.666372299194336,1
47,unspaced,incongruent,0.990297079086304,1
48,unspaced,congruent,0.743922233581543,1
49,unspaced,congruent,1.56013941764832,1
50,spaced,incongruent,1.90610527992249,1
51,unspaced,congruent,0.867406368255615,1
52,spaced,incongruent,1.03168749809265,1
53,unspaced,neutral,0.790404558181763,1
54,spaced,congruent,1.24970197677612,1
55,spaced,congruent,0.862972974777222,1
56,unspaced,incongruent,2.15824818611145,1
57,spaced,neutral,1.69242119789124,1
58,unspaced,neutral,0.693329334259033,1
59,spaced,neutral,0.642744779586792,1
60,unspaced,incongruent,0.664586067199707,1
1,unspaced,congruent,1.82691240310669,1
2,spaced,incongruent,0.664857864379883,1
3,spaced,incongruent,0.69506573677063,1
4,spaced,neutral,0.45544171333313,1
5,unspaced,neutral,0.486671686172485,1
6,spaced,congruent,0.890909433364868,1
7,spaced,congruent,0.601006507873535,1
8,spaced,neutral,0.340843915939331,0
9,unspaced,congruent,0.533206462860107,1
10,unspaced,neutral,0.556507587432861,1
11,unspaced,incongruent,0.932353973388672,1
12,unspaced,incongruent,0.832553148269653,1
13,spaced,congruent,0.559462785720825,1
14,spaced,incongruent,0.619588851928711,1
15,unspaced,neutral,0.621699333190918,1
16,unspaced,congruent,0.504583835601807,1
17,spaced,incongruent,0.700714111328125,0
18,spaced,neutral,0.707902193069458,1
19,unspaced,neutral,0.649788856506348,1
20,unspaced,incongruent,0.790137529373169,1
21,unspaced,congruent,2.17275190353394,1
22,spaced,neutral,1.10233545303345,1
23,unspaced,incongruent,1.25439858436584,1
24,spaced,congruent,0.897831678390503,1
25,unspaced,congruent,0.544357061386108,0
26,unspaced,neutral,0.703042984008789,1
27,unspaced,neutral,0.520247459411621,1
28,spaced,congruent,0.707751750946045,1
29,unspaced,incongruent,0.653240203857422,1
30,spaced,congruent,0.889358282089233,1
31,spaced,neutral,0.613520622253418,1
32,unspaced,congruent,0.596017599105835,1
33,spaced,incongruent,0.857672452926636,1
34,spaced,incongruent,0.645724534988403,1
35,unspaced,incongruent,0.646111488342285,1
36,spaced,neutral,0.639582872390747,1
37,spaced,congruent,0.48901891708374,1
38,spaced,neutral,0.435170412063599,1
39,spaced,congruent,0.455098628997803,1
40,unspaced,incongruent,0.56290078163147,1
41,spaced,incongruent,0.493547439575195,1
42,spaced,neutral,0.592304229736328,1
43,unspaced,congruent,0.662535667419434,1
44,spaced,incongruent,1.2129385471344,1
45,unspaced,neutral,0.707882642745972,0
46,unspaced,congruent,0.533653020858765,1
47,unspaced,incongruent,0.628508567810059,1
48,unspaced,neutral,0.697481632232666,1
49,unspaced,neutral,0.516872882843018,1
50,spaced,incongruent,0.736132383346558,1
51,spaced,neutral,0.784157276153564,1
52,spaced,neutral,0.527148962020874,1
53,unspaced,incongruent,0.951481342315674,1
54,spaced,congruent,0.619921445846558,1
55,unspaced,neutral,0.529306650161743,1
56,spaced,incongruent,2.17155265808105,1
57,unspaced,incongruent,0.563605308532715,1
58,unspaced,congruent,2.35943365097046,1
59,spaced,congruent,1.00926876068115,1
60,unspaced,congruent,0.637728452682495,1
1,unspaced,congruent,1.58548593521118,1
2,spaced,congruent,0.813719272613525,1
3,spaced,congruent,0.434396028518677,1
4,spaced,neutral,0.320788145065308,1
5,spaced,incongruent,0.518429517745972,1
6,spaced,neutral,0.509597063064575,1
7,unspaced,neutral,0.718338966369629,1
8,unspaced,congruent,0.570776462554932,1
9,unspaced,neutral,0.666410446166992,1
10,unspaced,incongruent,0.927902936935425,1
11,spaced,incongruent,1.35038805007935,1
12,unspaced,incongruent,0.707670450210571,1
13,spaced,neutral,0.595968008041382,1
14,unspaced,incongruent,0.641616344451904,1
15,unspaced,incongruent,0.941158771514893,1
16,spaced,incongruent,0.466904401779175,1
17,spaced,congruent,0.485320568084717,1
18,unspaced,congruent,0.526250123977661,1
19,spaced,congruent,0.543407440185547,1
20,spaced,incongruent,0.404007911682129,1
21,spaced,neutral,0.316200971603394,0
22,unspaced,neutral,0.533710956573486,1
23,unspaced,congruent,0.476779699325562,1
24,unspaced,neutral,0.749667644500732,1
25,unspaced,congruent,0.520741939544678,1
26,spaced,incongruent,0.764999866485596,1
27,spaced,congruent,0.833204507827759,1
28,spaced,incongruent,0.633611440658569,0
29,unspaced,neutral,0.510971546173096,0
30,spaced,neutral,0.73516845703125,1
31,unspaced,incongruent,0.674508094787598,1
32,spaced,neutral,0.566011905670166,1
33,unspaced,congruent,0.797423839569092,1
34,unspaced,neutral,0.660856962203979,1
35,spaced,congruent,0.728791952133179,1
36,unspaced,incongruent,0.681867122650146,1
37,spaced,incongruent,0.517026901245117,1
38,unspaced,incongruent,0.776937246322632,1
39,spaced,neutral,0.646525621414185,1
40,unspaced,neutral,0.649429559707642,1
41,spaced,incongruent,0.738510608673096,1
42,unspaced,congruent,0.618031978607178,1
43,unspaced,incongruent,2.8413074016571,1
44,unspaced,congruent,0.883699178695679,1
45,unspaced,neutral,0.598241567611694,1
46,spaced,congruent,0.872368335723877,1
47,spaced,neutral,0.439304113388062,1
48,spaced,congruent,0.57336163520813,1
49,unspaced,incongruent,0.821925401687622,1
50,unspaced,neutral,0.996012449264526,1
51,spaced,neutral,1.78562235832214,1
52,unspaced,incongruent,0.952504873275757,1
53,unspaced,congruent,1.1487922668457,1
54,spaced,neutral,0.953011512756348,1
55,spaced,incongruent,0.842398405075073,1
56,spaced,congruent,0.443583250045776,1
57,unspaced,neutral,0.495546340942383,0
58,spaced,congruent,0.576449394226074,1
59,unspaced,congruent,1.19257164001465,1
60,spaced,incongruent,0.714354515075684,0
1,spaced,congruent,1.99434161186218,1
2,spaced,incongruent,1.00038409233093,1
3,unspaced,congruent,0.493961572647095,1
4,unspaced,congruent,0.681994438171387,1
5,unspaced,incongruent,1.26855969429016,1
6,spaced,incongruent,1.17671823501587,1
7,unspaced,neutral,1.34191679954529,1
8,unspaced,incongruent,0.975297689437866,1
9,spaced,neutral,0.914090871810913,1
10,unspaced,neutral,0.607587575912476,1
11,spaced,congruent,0.767686128616333,1
12,spaced,neutral,0.495359897613525,1
13,spaced,incongruent,0.8854660987854,1
14,spaced,neutral,1.28533720970154,1
15,spaced,congruent,0.540693283081055,1
16,spaced,congruent,0.536943197250366,1
17,spaced,neutral,0.602240800857544,1
18,unspaced,incongruent,0.710905790328979,1
19,spaced,incongruent,0.731919050216675,1
20,unspaced,incongruent,0.823093175888062,1
21,unspaced,neutral,0.541659116744995,1
22,unspaced,neutral,0.697256565093994,1
23,unspaced,congruent,0.682419776916504,1
24,unspaced,congruent,0.732230186462402,1
25,spaced,congruent,0.892529010772705,1
26,spaced,neutral,1.28369069099426,1
27,unspaced,incongruent,1.33301568031311,1
28,spaced,incongruent,0.614137649536133,1
29,spaced,incongruent,0.555285692214966,1
30,unspaced,congruent,0.886781215667725,1
31,spaced,congruent,0.600118398666382,1
32,unspaced,congruent,0.657540798187256,1
33,unspaced,neutral,0.755303144454956,1
34,spaced,neutral,0.60855770111084,1
35,unspaced,neutral,0.721452236175537,1
36,unspaced,incongruent,1.58686280250549,1
37,unspaced,neutral,0.691941499710083,1
38,unspaced,neutral,0.884360551834106,1
39,spaced,congruent,0.642985582351685,1
40,spaced,neutral,0.703585147857666,1
41,spaced,congruent,1.11221885681152,1
42,unspaced,congruent,0.633766651153564,1
43,unspaced,congruent,0.656984806060791,1
44,spaced,incongruent,0.612482786178589,1
45,unspaced,incongruent,1.53126931190491,1
46,unspaced,incongruent,0.740875720977783,1
47,spaced,neutral,2.9962637424469,1
48,spaced,incongruent,0.736994504928589,1
49,unspaced,congruent,0.676135063171387,1
50,spaced,neutral,0.617457151412964,1
51,spaced,neutral,0.543902158737183,1
52,unspaced,incongruent,1.66817808151245,1
53,unspaced,incongruent,2.62035965919495,1
54,unspaced,neutral,1.5618531703949,1
55,unspaced,neutral,0.681319236755371,1
56,spaced,incongruent,0.780672073364258,1
57,spaced,congruent,1.08910465240479,1
58,spaced,incongruent,0.704311609268188,1
59,unspaced,congruent,0.591669082641602,1
60,spaced,congruent,0.657642602920532,1
