Trial,Spacing,Congruent,RT,Accuracy
1,unspaced,neutral,0.570231437683105,1
2,unspaced,neutral,0.423490524291992,1
3,unspaced,congruent,0.500850915908813,1
4,spaced,congruent,0.472921133041382,1
5,spaced,incongruent,0.619012832641602,1
6,unspaced,congruent,0.532934665679932,1
7,unspaced,incongruent,0.585806131362915,1
8,spaced,incongruent,0.675379991531372,1
9,spaced,neutral,0.517119884490967,1
10,unspaced,incongruent,0.60106897354126,1
11,spaced,neutral,0.497845649719238,1
12,spaced,congruent,0.483461141586304,1
13,unspaced,incongruent,0.637825012207031,1
14,spaced,incongruent,0.643040180206299,1
15,spaced,congruent,0.63372802734375,1
16,unspaced,neutral,0.542409181594849,1
17,spaced,neutral,0.545607089996338,1
18,unspaced,neutral,0.51319694519043,1
19,spaced,incongruent,0.858571290969849,1
20,unspaced,incongruent,0.534833192825317,1
21,spaced,neutral,0.504702091217041,1
22,spaced,congruent,0.745349168777466,1
23,unspaced,congruent,0.441967725753784,1
24,unspaced,congruent,0.42448353767395,1
25,spaced,incongruent,0.697862863540649,1
26,spaced,congruent,0.577655076980591,1
27,unspaced,neutral,0.622956275939941,1
28,unspaced,congruent,0.489516019821167,1
29,spaced,congruent,0.453196048736572,1
30,spaced,neutral,0.345153093338013,1
31,unspaced,congruent,0.401680707931519,1
32,unspaced,incongruent,0.328960180282593,0
33,unspaced,neutral,0.703962564468384,1
34,spaced,incongruent,0.465845346450806,1
35,spaced,neutral,0.608190298080444,1
36,unspaced,incongruent,0.59539270401001,1
37,spaced,congruent,0.538503646850586,1
38,unspaced,incongruent,0.756622552871704,1
39,unspaced,congruent,0.653329133987427,1
40,spaced,incongruent,0.625035762786865,1
41,spaced,incongruent,0.663310527801514,1
42,spaced,neutral,0.900525569915771,1
43,spaced,neutral,0.889762401580811,1
44,spaced,congruent,0.618021011352539,1
45,unspaced,congruent,0.738310098648071,1
46,unspaced,neutral,0.549163341522217,1
47,unspaced,neutral,0.620025396347046,1
48,unspaced,incongruent,0.89848518371582,1
49,spaced,congruent,0.505887508392334,1
50,unspaced,neutral,0.621620416641235,1
51,unspaced,neutral,0.5400390625,1
52,spaced,neutral,0.379524707794189,1
53,unspaced,congruent,0.574539422988892,1
54,spaced,congruent,0.493984460830688,1
55,spaced,incongruent,0.672055006027222,1
56,unspaced,incongruent,0.650616645812988,1
57,unspaced,congruent,0.495538234710693,1
58,spaced,neutral,0.406636476516724,1
59,unspaced,incongruent,0.653377056121826,1
60,spaced,incongruent,0.576254844665527,1
1,unspaced,congruent,0.620234966278076,1
2,unspaced,neutral,0.462016105651855,1
3,spaced,incongruent,0.585980176925659,1
4,spaced,neutral,0.425364017486572,1
5,spaced,neutral,0.499240159988403,1
6,spaced,incongruent,0.494157314300537,1
7,unspaced,incongruent,0.797638893127441,1
8,unspaced,congruent,0.622441530227661,1
9,unspaced,neutral,0.573689222335815,1
10,unspaced,incongruent,0.613328695297241,1
11,spaced,congruent,0.519278526306152,1
12,spaced,congruent,0.525564193725586,1
13,unspaced,neutral,0.687575101852417,1
14,unspaced,congruent,0.488398313522339,1
15,unspaced,incongruent,0.646008014678955,1
16,spaced,congruent,0.594246387481689,1
17,unspaced,neutral,0.567939758300781,1
18,unspaced,incongruent,0.56301474571228,1
19,spaced,neutral,0.472935914993286,1
20,spaced,incongruent,0.435631990432739,1
21,unspaced,congruent,0.645138263702393,1
22,spaced,congruent,0.577003479003906,1
23,spaced,incongruent,0.536760807037354,1
24,spaced,neutral,0.575261831283569,1
25,unspaced,neutral,0.462592601776123,1
26,spaced,neutral,0.629185914993286,1
27,unspaced,neutral,0.716464757919312,1
28,unspaced,incongruent,1.10686302185059,1
29,unspaced,incongruent,0.853891849517822,1
30,unspaced,congruent,0.713935613632202,1
31,spaced,incongruent,0.598007678985596,1
32,spaced,congruent,0.577798843383789,1
33,spaced,congruent,0.602927446365356,1
34,spaced,neutral,0.576658010482788,1
35,unspaced,congruent,0.625095367431641,1
36,spaced,incongruent,0.575617074966431,1
37,unspaced,incongruent,0.559433460235596,1
38,unspaced,neutral,0.689701080322266,1
39,spaced,incongruent,0.581232070922852,1
40,spaced,congruent,0.454878568649292,1
41,unspaced,incongruent,0.939633846282959,1
42,unspaced,congruent,0.527764320373535,1
43,spaced,neutral,0.841558694839478,1
44,spaced,incongruent,0.471529722213745,1
45,spaced,congruent,0.49940824508667,1
46,unspaced,congruent,0.42098069190979,1
47,unspaced,neutral,0.590251207351685,1
48,spaced,neutral,1.02122926712036,1
49,unspaced,neutral,0.658111333847046,1
50,spaced,congruent,0.568255186080933,1
51,unspaced,neutral,0.639675855636597,1
52,unspaced,congruent,0.476078510284424,1
53,spaced,neutral,0.405137777328491,1
54,spaced,congruent,0.459672927856445,1
55,spaced,incongruent,0.44302773475647,1
56,unspaced,incongruent,1.15171527862549,1
57,unspaced,incongruent,0.521604776382446,1
58,spaced,neutral,0.545555353164673,1
59,unspaced,congruent,0.584716320037842,1
60,spaced,incongruent,0.563217163085938,1
1,spaced,neutral,0.649387359619141,1
2,spaced,neutral,0.419646978378296,1
3,spaced,congruent,0.434773206710815,1
4,spaced,congruent,0.477002143859863,1
5,spaced,incongruent,0.539355993270874,1
6,unspaced,congruent,0.45373010635376,1
7,unspaced,neutral,0.390142202377319,1
8,spaced,incongruent,0.456443071365356,1
9,unspaced,neutral,0.426584482192993,1
10,unspaced,incongruent,0.391155242919922,1
11,unspaced,congruent,0.411280632019043,1
12,unspaced,incongruent,0.46282958984375,1
13,unspaced,incongruent,0.669035673141479,1
14,spaced,congruent,0.606325626373291,1
15,spaced,neutral,0.455161571502686,1
16,spaced,neutral,0.472386837005615,1
17,unspaced,neutral,0.649196863174438,1
18,unspaced,congruent,0.532044649124146,1
19,unspaced,congruent,0.601920127868652,1
20,unspaced,incongruent,0.643128395080566,1
21,spaced,congruent,0.65509033203125,1
22,unspaced,neutral,0.396382331848145,1
23,spaced,incongruent,0.513375759124756,1
24,spaced,incongruent,0.501973628997803,1
25,unspaced,incongruent,0.590701580047607,1
26,unspaced,neutral,0.431989669799805,1
27,spaced,congruent,0.42918872833252,1
28,spaced,neutral,0.578257083892822,1
29,spaced,neutral,0.433198213577271,1
30,spaced,incongruent,0.438016414642334,1
31,spaced,incongruent,0.477454662322998,1
32,unspaced,incongruent,0.570426464080811,1
33,spaced,congruent,0.616399765014648,1
34,unspaced,congruent,0.501312255859375,1
35,unspaced,congruent,0.763230085372925,1
36,unspaced,neutral,0.529908895492554,1
37,unspaced,congruent,0.449663639068604,1
38,unspaced,congruent,0.493805646896362,1
39,spaced,neutral,0.587580680847168,1
40,unspaced,incongruent,0.631462812423706,1
41,spaced,congruent,0.548457860946655,1
42,spaced,incongruent,0.822972297668457,1
43,unspaced,neutral,0.642815828323364,1
44,spaced,congruent,0.449524641036987,1
45,spaced,neutral,0.672121047973633,1
46,spaced,incongruent,0.508198022842407,1
47,unspaced,neutral,0.403614044189453,1
48,unspaced,incongruent,0.547996997833252,1
49,spaced,neutral,0.427698135375977,1
50,spaced,incongruent,0.519474267959595,1
51,unspaced,incongruent,0.549147605895996,1
52,spaced,neutral,0.627648115158081,1
53,unspaced,neutral,0.472817897796631,1
54,unspaced,neutral,0.566865205764771,1
55,spaced,congruent,0.475249052047729,1
56,spaced,incongruent,0.56761360168457,1
57,unspaced,congruent,0.401218175888062,1
58,unspaced,congruent,0.392952680587769,1
59,unspaced,incongruent,0.534489631652832,1
60,spaced,congruent,0.559108257293701,1
1,unspaced,incongruent,0.94410228729248,1
2,unspaced,neutral,0.443210124969482,1
3,spaced,neutral,0.398497104644775,1
4,unspaced,congruent,0.477211713790894,1
5,unspaced,incongruent,0.345745325088501,0
6,spaced,incongruent,0.530376672744751,1
7,unspaced,neutral,0.617987632751465,1
8,spaced,congruent,0.44233250617981,1
9,spaced,neutral,0.494678258895874,1
10,spaced,congruent,0.498538017272949,1
11,unspaced,congruent,0.502020120620728,1
12,spaced,incongruent,0.458856821060181,1
13,spaced,congruent,0.541393041610718,1
14,unspaced,incongruent,0.472301721572876,0
15,spaced,congruent,0.713833093643188,1
16,unspaced,neutral,0.582975149154663,1
17,spaced,neutral,0.539614200592041,1
18,unspaced,incongruent,0.699453115463257,1
19,spaced,incongruent,0.598816633224487,1
20,unspaced,neutral,0.495184183120728,1
21,spaced,neutral,0.4249587059021,1
22,spaced,incongruent,0.565666913986206,1
23,unspaced,congruent,0.41733455657959,1
24,unspaced,congruent,0.414050102233887,1
25,spaced,congruent,0.38222599029541,1
26,spaced,congruent,0.457690715789795,1
27,unspaced,incongruent,0.866047620773315,1
28,unspaced,neutral,0.866128444671631,1
29,spaced,incongruent,0.935595989227295,1
30,spaced,neutral,0.567841291427612,1
31,unspaced,neutral,0.493997573852539,1
32,spaced,neutral,0.625731706619263,1
33,unspaced,incongruent,0.646994829177856,1
34,unspaced,congruent,0.437572956085205,1
35,spaced,incongruent,0.656610250473022,1
36,unspaced,congruent,0.622950315475464,1
37,spaced,incongruent,0.663486480712891,1
38,unspaced,congruent,0.812227249145508,1
39,unspaced,congruent,0.433729410171509,1
40,unspaced,neutral,0.723484039306641,1
41,unspaced,incongruent,0.560877084732056,1
42,spaced,congruent,0.498152494430542,1
43,unspaced,neutral,0.514350891113281,1
44,spaced,incongruent,0.523685216903687,1
45,spaced,congruent,0.490128040313721,1
46,spaced,neutral,0.485556125640869,1
47,unspaced,incongruent,0.701338052749634,1
48,spaced,neutral,0.591925382614136,1
49,unspaced,congruent,0.496712446212769,1
50,unspaced,neutral,0.42779541015625,1
51,unspaced,congruent,0.554895877838135,1
52,unspaced,neutral,0.516158580780029,1
53,spaced,incongruent,0.613348007202148,1
54,spaced,neutral,0.441879749298096,1
55,unspaced,incongruent,0.668551206588745,1
56,spaced,congruent,0.465725898742676,1
57,unspaced,incongruent,0.616438388824463,1
58,spaced,congruent,0.478537559509277,1
59,spaced,neutral,0.510132312774658,1
60,spaced,incongruent,0.651577949523926,1
