Trial,Spacing,Congruent,RT,Accuracy
1,unspaced,neutral,0.613635778427124,1
2,unspaced,congruent,0.515107870101929,1
3,spaced,neutral,0.55065655708313,1
4,unspaced,neutral,0.415220499038696,1
5,unspaced,incongruent,0.700363636016846,1
6,spaced,congruent,0.46662974357605,1
7,unspaced,incongruent,0.422027349472046,0
8,spaced,congruent,0.503976106643677,1
9,spaced,incongruent,0.426925897598267,0
10,spaced,incongruent,0.609767198562622,1
11,spaced,neutral,0.421474695205688,1
12,unspaced,congruent,0.512885570526123,1
13,unspaced,neutral,0.427030324935913,1
14,spaced,neutral,0.459564208984375,1
15,spaced,neutral,0.426877498626709,1
16,spaced,incongruent,0.589576005935669,1
17,spaced,incongruent,0.477364063262939,1
18,unspaced,congruent,0.449380397796631,1
19,unspaced,congruent,0.464657068252563,1
20,unspaced,incongruent,0.684931755065918,1
21,unspaced,neutral,0.495073556900024,1
22,unspaced,incongruent,0.410179615020752,0
23,spaced,congruent,0.561161756515503,1
24,spaced,congruent,0.467400312423706,1
25,unspaced,congruent,0.544465780258179,1
26,spaced,congruent,0.481702089309692,1
27,spaced,incongruent,0.669677495956421,1
28,unspaced,neutral,0.489864110946655,1
29,spaced,neutral,0.495515823364258,1
30,spaced,congruent,0.627553224563599,1
31,unspaced,neutral,0.581092596054077,1
32,spaced,incongruent,0.632530689239502,1
33,unspaced,congruent,0.608287811279297,1
34,spaced,neutral,0.590336084365845,1
35,unspaced,incongruent,0.634307146072388,1
36,unspaced,incongruent,0.567209243774414,1
37,unspaced,congruent,0.480031728744507,1
38,unspaced,incongruent,0.567667007446289,1
39,spaced,congruent,0.538871288299561,1
40,spaced,neutral,0.43243408203125,1
41,spaced,congruent,0.530416488647461,1
42,unspaced,neutral,0.749625205993652,1
43,unspaced,neutral,0.704692840576172,0
44,spaced,incongruent,1.59454417228699,1
45,unspaced,incongruent,0.520397186279297,1
46,spaced,neutral,0.579716205596924,0
47,unspaced,congruent,1.50681114196777,1
48,spaced,incongruent,0.565326452255249,1
49,unspaced,incongruent,0.61014461517334,1
50,spaced,neutral,0.488327264785767,1
51,unspaced,neutral,0.726907968521118,1
52,spaced,incongruent,0.509407043457031,1
53,unspaced,incongruent,0.592662572860718,1
54,spaced,congruent,0.553122282028198,1
55,unspaced,congruent,0.569812059402466,1
56,unspaced,neutral,0.848856210708618,1
57,unspaced,congruent,0.579205989837646,1
58,spaced,congruent,0.454443693161011,1
59,spaced,incongruent,0.404359102249146,0
60,spaced,neutral,0.616029024124146,0
1,spaced,incongruent,0.7287437915802,1
2,unspaced,congruent,0.42999005317688,1
3,spaced,congruent,0.40751576423645,1
4,unspaced,incongruent,0.587007761001587,1
5,unspaced,neutral,0.869282960891724,1
6,unspaced,incongruent,0.662498474121094,1
7,unspaced,congruent,0.980539798736572,1
8,spaced,neutral,0.388264417648315,1
9,spaced,incongruent,0.524127960205078,1
10,unspaced,neutral,0.579627990722656,1
11,spaced,congruent,0.45968770980835,1
12,spaced,neutral,0.454323530197144,1
13,unspaced,congruent,0.46792459487915,1
14,spaced,congruent,0.433237075805664,1
15,spaced,congruent,0.535552024841309,1
16,spaced,neutral,0.632519960403442,1
17,spaced,incongruent,0.59825325012207,1
18,unspaced,neutral,0.513111114501953,1
19,spaced,incongruent,0.502883672714233,1
20,unspaced,incongruent,0.621893167495728,1
21,unspaced,incongruent,0.603684902191162,1
22,spaced,neutral,0.776387453079224,1
23,unspaced,neutral,0.531543970108032,1
24,unspaced,congruent,0.468152284622192,1
25,unspaced,incongruent,0.55275559425354,1
26,spaced,congruent,0.548150062561035,1
27,spaced,neutral,0.644756078720093,0
28,spaced,neutral,0.68200159072876,1
29,unspaced,incongruent,0.566247940063477,1
30,spaced,congruent,0.483561515808105,1
31,spaced,incongruent,0.699331283569336,1
32,unspaced,congruent,0.531924486160278,1
33,unspaced,congruent,1.1506073474884,1
34,spaced,incongruent,0.646022081375122,1
35,unspaced,neutral,0.608944892883301,1
36,unspaced,neutral,0.704035043716431,1
37,unspaced,incongruent,0.635342359542847,1
38,unspaced,incongruent,0.601195096969604,1
39,spaced,neutral,0.631330013275146,1
40,spaced,congruent,0.766519546508789,1
41,unspaced,neutral,0.742292881011963,1
42,unspaced,neutral,0.141339063644409,0
43,spaced,neutral,0.720534086227417,1
44,spaced,incongruent,0.592774391174316,1
45,unspaced,congruent,0.437851905822754,1
46,spaced,congruent,0.631165981292725,1
47,spaced,incongruent,0.538803577423096,1
48,unspaced,congruent,0.612112522125244,1
49,spaced,neutral,0.520296573638916,1
50,unspaced,incongruent,0.796892642974854,1
51,unspaced,neutral,0.84437108039856,1
52,unspaced,incongruent,0.751079082489014,1
53,spaced,neutral,0.711585998535156,1
54,unspaced,congruent,0.469198942184448,1
55,unspaced,congruent,0.47916841506958,1
56,spaced,incongruent,0.574254512786865,1
57,spaced,incongruent,0.513895750045776,1
58,unspaced,neutral,0.628894329071045,1
59,spaced,congruent,0.485456466674805,1
60,spaced,congruent,0.454735517501831,1
1,spaced,neutral,1.98471927642822,1
2,unspaced,congruent,0.46177339553833,1
3,spaced,congruent,0.343333959579468,1
4,unspaced,neutral,0.668102979660034,1
5,spaced,incongruent,0.581750631332397,1
6,unspaced,neutral,0.553034067153931,1
7,spaced,incongruent,0.543213844299316,1
8,unspaced,congruent,0.553712606430054,1
9,spaced,neutral,0.509562969207764,1
10,unspaced,incongruent,0.620352983474731,1
11,unspaced,incongruent,2.57560014724731,1
12,spaced,congruent,0.927159547805786,1
13,unspaced,congruent,0.551429986953735,1
14,spaced,congruent,0.45656156539917,1
15,spaced,neutral,0.44357442855835,1
16,unspaced,neutral,0.53086256980896,1
17,unspaced,congruent,0.402331113815308,1
18,spaced,incongruent,0.515364646911621,0
19,unspaced,incongruent,1.31855797767639,1
20,spaced,incongruent,0.254485130310059,0
21,spaced,neutral,0.715142965316772,1
22,spaced,congruent,0.459242343902588,1
23,unspaced,neutral,0.608899116516113,1
24,unspaced,incongruent,0.553843259811401,1
25,unspaced,congruent,0.494331359863281,1
26,spaced,incongruent,0.37718939781189,0
27,spaced,congruent,0.860229730606079,1
28,spaced,congruent,0.700838088989258,1
29,spaced,neutral,0.563020467758179,1
30,spaced,neutral,0.368901252746582,1
31,unspaced,congruent,0.618861198425293,1
32,unspaced,incongruent,0.343413829803467,0
33,unspaced,neutral,0.712984085083008,1
34,spaced,incongruent,0.577808856964111,1
35,unspaced,neutral,0.588573694229126,1
36,unspaced,incongruent,0.523977041244507,1
37,unspaced,incongruent,0.462146759033203,1
38,unspaced,incongruent,0.608157157897949,1
39,unspaced,neutral,0.569441080093384,1
40,spaced,incongruent,0.568566799163818,1
41,spaced,incongruent,0.521572113037109,1
42,spaced,congruent,0.486754417419434,1
43,unspaced,congruent,0.51862645149231,1
44,spaced,neutral,0.480279207229614,1
45,spaced,neutral,0.480909824371338,1
46,unspaced,neutral,0.54755163192749,1
47,spaced,congruent,0.485623598098755,1
48,unspaced,congruent,0.486896991729736,1
49,unspaced,congruent,0.516998052597046,1
50,unspaced,incongruent,0.536287784576416,1
51,unspaced,neutral,0.544955968856812,1
52,spaced,congruent,0.453824281692505,1
53,unspaced,congruent,0.431097984313965,1
54,spaced,incongruent,0.627252340316772,1
55,spaced,neutral,0.550127267837524,1
56,unspaced,neutral,0.495895385742188,1
57,spaced,incongruent,0.660342693328857,1
58,unspaced,incongruent,0.818212032318115,1
59,spaced,congruent,0.679258584976196,1
60,spaced,neutral,0.592032432556152,1
1,unspaced,congruent,0.503909826278687,1
2,unspaced,neutral,0.484130620956421,1
3,unspaced,incongruent,1.06145358085632,1
4,spaced,neutral,0.788853168487549,1
5,unspaced,neutral,0.500684976577759,1
6,spaced,incongruent,0.546992063522339,1
7,spaced,neutral,0.589259147644043,1
8,unspaced,congruent,0.587120294570923,1
9,unspaced,incongruent,0.883010864257812,1
10,spaced,congruent,0.582486629486084,1
11,spaced,congruent,0.617312669754028,1
12,spaced,incongruent,0.607589960098267,1
13,unspaced,congruent,0.585345506668091,1
14,unspaced,neutral,0.669421434402466,1
15,spaced,incongruent,0.463569641113281,1
16,spaced,incongruent,0.737728834152222,1
17,unspaced,incongruent,0.545759677886963,1
18,unspaced,incongruent,0.518603086471558,1
19,spaced,neutral,0.461960554122925,1
20,spaced,congruent,0.431525945663452,1
21,spaced,neutral,0.549619913101196,1
22,unspaced,neutral,0.487436056137085,1
23,unspaced,congruent,0.593382120132446,1
24,spaced,congruent,0.573154449462891,1
25,unspaced,congruent,0.585848093032837,1
26,spaced,incongruent,0.879721164703369,1
27,unspaced,incongruent,0.892912626266479,1
28,spaced,neutral,0.759765625,1
29,unspaced,neutral,0.702954053878784,1
30,unspaced,incongruent,1.53948307037354,1
31,unspaced,neutral,0.524009943008423,1
32,spaced,congruent,0.584585666656494,1
33,spaced,congruent,0.48874306678772,1
34,spaced,incongruent,0.667609214782715,1
35,unspaced,congruent,0.644112586975098,1
36,spaced,neutral,0.46023154258728,0
37,unspaced,neutral,0.949593544006348,1
38,unspaced,incongruent,0.503630638122559,1
39,spaced,neutral,0.538216590881348,1
40,spaced,congruent,0.485918760299683,1
41,unspaced,congruent,0.744175672531128,1
42,spaced,neutral,0.537999153137207,1
43,unspaced,congruent,0.688652038574219,1
44,spaced,incongruent,0.57040548324585,1
45,unspaced,incongruent,0.685125112533569,1
46,spaced,incongruent,0.703507661819458,1
47,unspaced,neutral,0.512989044189453,1
48,spaced,congruent,0.436857461929321,1
49,spaced,congruent,0.660387516021729,1
50,unspaced,congruent,0.436504602432251,1
51,unspaced,neutral,0.434126853942871,1
52,unspaced,incongruent,0.578458070755005,1
53,spaced,neutral,0.739590167999268,1
54,unspaced,congruent,0.463666200637817,1
55,spaced,congruent,0.461361885070801,1
56,spaced,incongruent,0.562028408050537,1
57,spaced,incongruent,0.610594749450684,1
58,unspaced,neutral,0.498531341552734,0
59,spaced,neutral,0.613201141357422,1
60,unspaced,incongruent,0.707743167877197,1
