Trial,Spacing,Congruent,RT,Accuracy
1,spaced,neutral,0.920186758041382,1
2,spaced,neutral,0.558954238891602,1
3,unspaced,incongruent,0.55223560333252,1
4,unspaced,neutral,0.636545181274414,1
5,spaced,congruent,0.478449106216431,1
6,spaced,incongruent,0.636353731155396,1
7,unspaced,congruent,0.567661285400391,1
8,spaced,incongruent,0.751425981521606,1
9,unspaced,incongruent,0.708364725112915,1
10,spaced,congruent,0.564178466796875,1
11,unspaced,neutral,0.460887908935547,1
12,unspaced,congruent,0.440322875976562,1
13,unspaced,congruent,0.565139293670654,1
14,unspaced,incongruent,0.490303754806519,1
15,spaced,neutral,0.471288204193115,1
16,unspaced,incongruent,0.667900323867798,1
17,unspaced,congruent,0.457814693450928,1
18,spaced,congruent,0.533693790435791,1
19,spaced,neutral,0.502580404281616,1
20,spaced,congruent,0.56811785697937,1
21,unspaced,neutral,0.392997264862061,1
22,unspaced,neutral,0.500548124313354,1
23,spaced,incongruent,0.666540384292603,1
24,spaced,incongruent,0.495993614196777,1
25,unspaced,incongruent,0.554683208465576,1
26,spaced,neutral,0.443067789077759,1
27,spaced,incongruent,0.5175461769104,1
28,spaced,incongruent,0.475956916809082,1
29,unspaced,congruent,0.421929359436035,1
30,spaced,congruent,0.387020587921143,1
31,unspaced,congruent,0.497748613357544,1
32,spaced,congruent,0.495231151580811,1
33,spaced,neutral,0.502874612808228,1
34,unspaced,neutral,0.410058498382568,1
35,unspaced,neutral,0.523866653442383,1
36,unspaced,incongruent,0.640731573104858,1
37,unspaced,incongruent,0.61591362953186,1
38,spaced,congruent,0.541084289550781,1
39,unspaced,congruent,0.637284755706787,1
40,unspaced,incongruent,0.76672625541687,1
41,unspaced,neutral,0.677187442779541,1
42,spaced,incongruent,0.558107137680054,1
43,unspaced,neutral,0.776801586151123,1
44,spaced,neutral,0.560053825378418,1
45,spaced,neutral,0.523964166641235,1
46,spaced,congruent,0.595767021179199,1
47,spaced,incongruent,0.544122695922852,1
48,unspaced,congruent,0.610280990600586,1
49,unspaced,congruent,0.554483413696289,1
50,unspaced,incongruent,0.714731216430664,1
51,spaced,incongruent,0.66175389289856,1
52,unspaced,incongruent,0.630523920059204,1
53,unspaced,neutral,0.574504137039185,1
54,unspaced,neutral,0.53354024887085,1
55,spaced,neutral,0.52731466293335,1
56,unspaced,congruent,0.824240207672119,1
57,spaced,congruent,0.66896653175354,1
58,spaced,congruent,0.617316722869873,1
59,spaced,neutral,0.63297176361084,1
60,spaced,incongruent,0.595731019973755,1
1,spaced,congruent,0.868239164352417,1
2,unspaced,incongruent,0.576660871505737,1
3,unspaced,congruent,0.613478183746338,1
4,unspaced,neutral,0.69129753112793,1
5,spaced,incongruent,0.79966402053833,1
6,spaced,neutral,0.502050161361694,1
7,unspaced,congruent,0.584627628326416,1
8,spaced,congruent,0.422270059585571,1
9,spaced,neutral,0.460790395736694,1
10,unspaced,neutral,0.463758707046509,1
11,spaced,incongruent,0.448180675506592,1
12,unspaced,incongruent,0.50044584274292,1
13,unspaced,neutral,0.535570859909058,1
14,unspaced,incongruent,0.572787046432495,1
15,spaced,incongruent,0.50291109085083,1
16,unspaced,incongruent,0.560011625289917,1
17,spaced,congruent,0.521948575973511,1
18,unspaced,neutral,0.532230138778687,1
19,spaced,incongruent,0.534512758255005,1
20,spaced,congruent,0.44882869720459,1
21,unspaced,congruent,0.512694835662842,1
22,spaced,neutral,0.522740602493286,1
23,spaced,neutral,0.48761510848999,1
24,unspaced,congruent,0.48954963684082,1
25,spaced,incongruent,0.527023077011108,1
26,unspaced,neutral,0.550613641738892,1
27,spaced,congruent,0.462281227111816,1
28,spaced,congruent,0.523675918579102,1
29,unspaced,incongruent,0.476163864135742,1
30,unspaced,congruent,0.574903249740601,1
31,unspaced,neutral,0.473449945449829,1
32,unspaced,congruent,0.565662860870361,1
33,spaced,neutral,0.557820558547974,1
34,spaced,incongruent,0.619465827941895,1
35,spaced,neutral,0.464356899261475,1
36,unspaced,incongruent,0.564164638519287,1
37,spaced,incongruent,0.710396289825439,1
38,unspaced,congruent,0.615742683410645,1
39,unspaced,congruent,0.54887056350708,1
40,unspaced,neutral,0.48329496383667,1
41,spaced,congruent,0.564774990081787,1
42,spaced,incongruent,0.563681840896606,1
43,spaced,congruent,0.569246768951416,1
44,unspaced,incongruent,0.650193691253662,1
45,unspaced,incongruent,0.552319765090942,1
46,spaced,neutral,0.64150595664978,1
47,unspaced,neutral,0.525480985641479,1
48,spaced,neutral,0.493630170822144,1
49,spaced,congruent,0.665546178817749,1
50,spaced,incongruent,0.574532985687256,1
51,unspaced,neutral,0.535213708877563,1
52,spaced,congruent,0.646333932876587,1
53,unspaced,neutral,0.595681190490723,1
54,unspaced,incongruent,0.693950176239014,1
55,unspaced,congruent,0.576584815979004,1
56,spaced,neutral,0.607677221298218,1
57,spaced,neutral,0.642987251281738,1
58,unspaced,incongruent,0.773330688476562,1
59,spaced,incongruent,0.74639105796814,1
60,unspaced,congruent,0.537892818450928,1
1,spaced,neutral,1.10421323776245,1
2,spaced,congruent,0.946300268173218,1
3,unspaced,neutral,0.419880390167236,1
4,unspaced,incongruent,0.527603387832642,1
5,spaced,incongruent,0.489169120788574,1
6,unspaced,congruent,0.418642997741699,1
7,unspaced,neutral,0.442209005355835,1
8,spaced,congruent,0.443954706192017,1
9,spaced,neutral,0.449957132339478,1
10,unspaced,incongruent,0.482041120529175,1
11,spaced,incongruent,0.518241167068481,1
12,unspaced,congruent,0.5287926197052,1
13,spaced,neutral,0.436715602874756,1
14,spaced,congruent,0.470518112182617,1
15,unspaced,incongruent,0.482770204544067,1
16,unspaced,incongruent,0.5423743724823,1
17,unspaced,congruent,0.508718729019165,1
18,unspaced,neutral,0.45768928527832,1
19,unspaced,neutral,0.459111928939819,1
20,spaced,incongruent,0.466652631759644,1
21,spaced,congruent,0.422228813171387,1
22,unspaced,congruent,0.419836759567261,1
23,spaced,incongruent,0.442785978317261,1
24,spaced,neutral,0.445843696594238,0
25,spaced,congruent,0.51371169090271,1
26,spaced,neutral,0.548381090164185,1
27,unspaced,neutral,0.541110515594482,1
28,unspaced,congruent,0.495069742202759,1
29,unspaced,incongruent,0.541868209838867,1
30,spaced,incongruent,0.538874626159668,1
31,unspaced,incongruent,0.664222717285156,1
32,spaced,congruent,0.519158840179443,1
33,spaced,neutral,0.649856567382812,1
34,unspaced,neutral,0.525954484939575,1
35,spaced,incongruent,0.542945384979248,1
36,unspaced,congruent,0.521030426025391,1
37,spaced,neutral,0.555204153060913,1
38,unspaced,neutral,0.532687664031982,0
39,spaced,incongruent,0.545914649963379,1
40,unspaced,congruent,0.461183071136475,1
41,spaced,congruent,0.510530948638916,1
42,unspaced,neutral,0.515532970428467,1
43,unspaced,incongruent,0.588117599487305,1
44,spaced,neutral,0.591244220733643,1
45,unspaced,incongruent,0.491306304931641,1
46,spaced,incongruent,0.500649213790894,1
47,spaced,congruent,0.50527548789978,1
48,unspaced,congruent,0.526599645614624,1
49,spaced,neutral,0.619611740112305,1
50,unspaced,neutral,0.602014064788818,1
51,spaced,neutral,0.563061237335205,1
52,spaced,incongruent,0.532950162887573,1
53,unspaced,incongruent,0.534839153289795,1
54,spaced,congruent,0.429265975952148,1
55,spaced,incongruent,0.525063514709473,1
56,unspaced,congruent,0.559027433395386,1
57,unspaced,congruent,0.479872941970825,1
58,unspaced,incongruent,0.479060649871826,1
59,unspaced,neutral,0.500888586044312,1
60,spaced,congruent,0.526031017303467,1
1,spaced,neutral,1.20765852928162,1
2,unspaced,congruent,0.480639457702637,1
3,spaced,congruent,0.503061056137085,1
4,unspaced,incongruent,0.47875452041626,1
5,spaced,incongruent,0.477617740631104,1
6,unspaced,incongruent,0.551025152206421,1
7,spaced,neutral,0.457570314407349,1
8,spaced,incongruent,0.493663787841797,1
9,spaced,congruent,0.486887454986572,1
10,unspaced,congruent,0.419517040252686,1
11,unspaced,neutral,0.462226867675781,1
12,unspaced,neutral,0.412199258804321,1
13,unspaced,congruent,0.603235483169556,1
14,spaced,incongruent,0.500783681869507,1
15,unspaced,congruent,0.506823778152466,1
16,unspaced,neutral,0.565444469451904,1
17,unspaced,incongruent,0.52010178565979,1
18,spaced,neutral,0.290791511535645,1
19,unspaced,incongruent,0.266617298126221,0
20,unspaced,neutral,0.450109481811523,1
21,spaced,congruent,0.502910137176514,1
22,spaced,neutral,0.5223069190979,1
23,spaced,incongruent,0.513194799423218,1
24,spaced,congruent,0.494599342346191,1
25,spaced,congruent,0.52137279510498,1
26,unspaced,congruent,0.472963809967041,1
27,spaced,congruent,0.49275016784668,1
28,unspaced,congruent,0.495427370071411,1
29,spaced,neutral,0.586561918258667,1
30,unspaced,neutral,0.453473806381226,1
31,unspaced,neutral,0.483808755874634,1
32,spaced,incongruent,0.573669672012329,1
33,unspaced,incongruent,0.562728643417358,1
34,unspaced,incongruent,0.604933023452759,1
35,spaced,neutral,0.539343357086182,1
36,spaced,incongruent,0.523701906204224,1
37,spaced,congruent,0.54256010055542,1
38,unspaced,congruent,0.637812376022339,1
39,unspaced,congruent,0.524727344512939,1
40,spaced,neutral,0.550116777420044,1
41,unspaced,neutral,0.563612461090088,1
42,unspaced,neutral,0.471400260925293,1
43,unspaced,incongruent,0.632892847061157,1
44,spaced,congruent,0.581345081329346,1
45,unspaced,incongruent,0.87871265411377,1
46,spaced,neutral,0.558456659317017,1
47,spaced,incongruent,0.636198997497559,1
48,spaced,incongruent,0.73768949508667,1
49,unspaced,neutral,0.537477970123291,1
50,unspaced,congruent,0.588509798049927,1
51,spaced,neutral,0.572939395904541,1
52,spaced,congruent,0.524724960327148,1
53,unspaced,congruent,0.493767738342285,1
54,unspaced,incongruent,0.633033752441406,1
55,spaced,neutral,0.61144495010376,1
56,spaced,incongruent,0.481091737747192,1
57,spaced,congruent,0.596635818481445,1
58,unspaced,incongruent,0.558234214782715,1
59,spaced,incongruent,0.558815002441406,1
60,unspaced,neutral,0.599634170532227,1
