Trial,Spacing,Congruent,RT,Accuracy
1,unspaced,congruent,1.03123545646667,1
2,spaced,congruent,0.515525341033936,1
3,spaced,neutral,0.512500524520874,1
4,unspaced,neutral,0.490397214889526,1
5,spaced,incongruent,0.780057668685913,1
6,spaced,neutral,0.70023250579834,1
7,spaced,incongruent,0.947522163391113,1
8,unspaced,neutral,0.645930051803589,1
9,unspaced,incongruent,0.716196775436401,1
10,unspaced,incongruent,3.71227478981018,1
11,spaced,congruent,0.616716861724854,1
12,unspaced,congruent,0.604087591171265,1
13,unspaced,incongruent,1.7960524559021,1
14,unspaced,congruent,0.91067910194397,1
15,spaced,neutral,1.02954840660095,1
16,unspaced,neutral,0.633680105209351,1
17,unspaced,congruent,0.768747091293335,1
18,spaced,incongruent,0.601062059402466,1
19,spaced,incongruent,0.825179815292358,1
20,spaced,neutral,0.791105031967163,1
21,spaced,congruent,0.746635437011719,1
22,unspaced,incongruent,1.06008577346802,1
23,unspaced,neutral,0.862787485122681,1
24,spaced,congruent,0.586851596832275,1
25,unspaced,incongruent,0.655053853988647,1
26,spaced,neutral,0.6584312915802,1
27,spaced,neutral,0.727683067321777,1
28,spaced,congruent,0.687074661254883,1
29,unspaced,neutral,0.484561443328857,1
30,spaced,incongruent,0.615461349487305,1
31,spaced,congruent,0.93903374671936,1
32,unspaced,congruent,0.940466642379761,1
33,unspaced,congruent,0.717913627624512,1
34,unspaced,neutral,0.656845808029175,1
35,spaced,incongruent,0.878617286682129,1
36,unspaced,incongruent,0.929533958435059,1
37,spaced,congruent,0.683836221694946,1
38,spaced,neutral,0.726336002349854,1
39,unspaced,congruent,0.824938535690308,1
40,unspaced,incongruent,0.741581678390503,1
41,unspaced,incongruent,0.804485559463501,1
42,spaced,incongruent,1.03301811218262,1
43,unspaced,congruent,0.786443471908569,1
44,spaced,congruent,0.535688400268555,1
45,spaced,neutral,0.62450098991394,1
46,unspaced,neutral,0.553855657577515,1
47,spaced,incongruent,0.573897838592529,1
48,unspaced,neutral,0.617910146713257,1
49,spaced,congruent,0.531224012374878,1
50,spaced,incongruent,0.605376958847046,1
51,spaced,incongruent,1.27804040908813,1
52,unspaced,congruent,1.2470908164978,1
53,spaced,neutral,0.647269487380981,1
54,spaced,neutral,1.01032471656799,1
55,unspaced,neutral,1.32118105888367,1
56,unspaced,neutral,0.756690502166748,1
57,unspaced,incongruent,1.19274640083313,1
58,unspaced,incongruent,0.900650501251221,1
59,unspaced,congruent,0.679693222045898,1
60,spaced,congruent,0.608514785766602,1
1,unspaced,neutral,1.42422842979431,1
2,spaced,incongruent,2.47120308876038,1
3,spaced,congruent,0.759342908859253,1
4,unspaced,incongruent,1.16005778312683,1
5,unspaced,neutral,1.21670460700989,1
6,unspaced,incongruent,1.20858931541443,0
7,unspaced,congruent,1.48626494407654,1
8,spaced,neutral,0.728484630584717,1
9,spaced,neutral,0.753380537033081,1
10,spaced,incongruent,1.02649259567261,1
11,spaced,congruent,0.694593191146851,1
12,unspaced,congruent,0.574139833450317,1
13,unspaced,congruent,0.62011194229126,1
14,spaced,neutral,0.936103105545044,1
15,unspaced,neutral,0.883331537246704,1
16,spaced,congruent,1.65357422828674,1
17,spaced,neutral,1.09601521492004,1
18,spaced,incongruent,0.932431697845459,1
19,unspaced,congruent,0.847139835357666,1
20,spaced,congruent,0.656960964202881,1
21,unspaced,incongruent,1.35997176170349,1
22,unspaced,neutral,0.841253995895386,1
23,spaced,incongruent,0.76361870765686,1
24,unspaced,incongruent,1.81555867195129,1
25,spaced,congruent,0.788939714431763,1
26,spaced,neutral,1.19690585136414,1
27,unspaced,incongruent,2.06698870658875,1
28,unspaced,congruent,1.06382012367249,1
29,spaced,incongruent,1.53769111633301,1
30,spaced,incongruent,1.26548194885254,1
31,unspaced,neutral,0.61693549156189,1
32,unspaced,incongruent,1.51499223709106,1
33,spaced,congruent,0.974756956100464,1
34,unspaced,congruent,0.687287092208862,1
35,spaced,neutral,0.764514207839966,1
36,unspaced,neutral,0.738132238388062,1
37,spaced,congruent,0.659681797027588,1
38,unspaced,incongruent,2.63212466239929,1
39,unspaced,neutral,1.68694353103638,1
40,unspaced,neutral,0.754794120788574,1
41,unspaced,congruent,1.24803352355957,1
42,unspaced,incongruent,2.26889824867249,1
43,spaced,congruent,1.43549108505249,1
44,unspaced,congruent,0.750296831130981,1
45,spaced,neutral,1.04146361351013,1
46,spaced,neutral,0.622492074966431,1
47,spaced,incongruent,1.49054670333862,1
48,spaced,incongruent,0.995660066604614,1
49,unspaced,neutral,0.89216685295105,1
50,spaced,congruent,0.862538576126099,1
51,unspaced,congruent,0.717371940612793,1
52,unspaced,incongruent,1.50020456314087,1
53,spaced,neutral,2.20657634735107,1
54,spaced,incongruent,2.2734169960022,1
55,spaced,incongruent,0.695511341094971,1
56,unspaced,incongruent,0.811517238616943,1
57,unspaced,neutral,1.00371217727661,1
58,unspaced,congruent,0.712755918502808,1
59,spaced,congruent,0.706782817840576,1
60,spaced,neutral,0.777176380157471,1
1,unspaced,congruent,0.927347898483276,1
2,spaced,incongruent,0.505630016326904,1
3,spaced,congruent,0.603759050369263,1
4,unspaced,incongruent,1.07780575752258,1
5,spaced,incongruent,0.60577917098999,1
6,spaced,congruent,0.638586282730103,1
7,unspaced,incongruent,0.966297388076782,1
8,unspaced,neutral,0.881324291229248,1
9,spaced,neutral,0.725897312164307,1
10,spaced,neutral,0.692070722579956,1
11,unspaced,neutral,0.901612043380737,1
12,unspaced,congruent,0.711965322494507,1
13,unspaced,neutral,0.564618349075317,1
14,unspaced,neutral,0.495595932006836,1
15,spaced,neutral,0.477356910705566,0
16,unspaced,congruent,0.663473844528198,1
17,unspaced,incongruent,1.20689916610718,1
18,unspaced,congruent,0.789560317993164,1
19,spaced,neutral,0.909215450286865,1
20,spaced,congruent,0.71904993057251,1
21,spaced,congruent,0.768109560012817,1
22,spaced,incongruent,0.704675912857056,1
23,spaced,incongruent,0.537678956985474,1
24,unspaced,incongruent,0.794255018234253,1
25,spaced,incongruent,0.823652267456055,1
26,spaced,incongruent,0.664826154708862,1
27,unspaced,neutral,1.2702579498291,1
28,unspaced,congruent,0.918980598449707,1
29,spaced,neutral,0.976380348205566,1
30,spaced,neutral,0.705518960952759,1
31,unspaced,congruent,0.730762720108032,1
32,spaced,congruent,1.22120642662048,1
33,spaced,congruent,0.587412357330322,1
34,unspaced,incongruent,0.876938104629517,1
35,unspaced,neutral,0.573826313018799,1
36,unspaced,incongruent,0.716957807540894,1
37,spaced,incongruent,0.712668418884277,1
38,spaced,incongruent,0.898478031158447,1
39,unspaced,neutral,1.41956734657288,1
40,unspaced,incongruent,0.667260885238647,1
41,unspaced,congruent,0.571537017822266,1
42,spaced,neutral,0.647108316421509,1
43,unspaced,incongruent,0.818358182907104,1
44,spaced,neutral,1.07232213020325,1
45,spaced,congruent,0.675843238830566,1
46,unspaced,neutral,0.535991668701172,1
47,unspaced,congruent,0.763374328613281,1
48,spaced,congruent,0.532244443893433,1
49,spaced,incongruent,0.608779430389404,1
50,spaced,incongruent,0.61596941947937,1
51,spaced,neutral,0.904279470443726,1
52,spaced,neutral,0.578220844268799,1
53,unspaced,incongruent,0.944972515106201,1
54,spaced,congruent,0.638304233551025,1
55,unspaced,neutral,1.12352061271667,1
56,unspaced,neutral,0.727700710296631,1
57,spaced,congruent,0.62830376625061,1
58,unspaced,congruent,0.559416055679321,1
59,unspaced,congruent,0.70593786239624,1
60,unspaced,incongruent,0.662770986557007,1
1,unspaced,incongruent,1.66942644119263,1
2,unspaced,incongruent,0.917283058166504,1
3,spaced,neutral,1.69795179367065,1
4,spaced,congruent,4.48618030548096,1
5,unspaced,congruent,0.977530717849731,1
6,unspaced,congruent,8.58741569519043,1
7,unspaced,neutral,6.45616006851196,1
8,spaced,congruent,1.15701365470886,1
9,unspaced,neutral,3.29188513755798,1
10,spaced,neutral,1.09739518165588,1
11,spaced,incongruent,4.87453937530518,1
12,spaced,incongruent,0.68974757194519,1
13,unspaced,neutral,0.837486743927002,1
14,unspaced,congruent,1.04353284835815,1
15,unspaced,incongruent,0.939945697784424,1
16,spaced,incongruent,1.38641810417175,1
17,spaced,incongruent,0.828401803970337,1
18,unspaced,congruent,0.67782735824585,1
19,spaced,neutral,0.673720359802246,1
20,spaced,congruent,1.03053665161133,1
21,spaced,neutral,0.777709007263184,1
22,spaced,congruent,1.64263343811035,1
23,unspaced,incongruent,1.55347919464111,1
24,unspaced,neutral,1.12205696105957,1
25,spaced,incongruent,1.96918797492981,1
26,unspaced,congruent,1.69264006614685,1
27,unspaced,neutral,1.87669944763184,1
28,spaced,neutral,2.22591805458069,0
29,unspaced,incongruent,1.2967529296875,1
30,spaced,congruent,2.75443959236145,1
31,spaced,congruent,0.568919897079468,1
32,unspaced,incongruent,0.87373423576355,1
33,unspaced,neutral,0.803789854049683,1
34,unspaced,congruent,0.660330772399902,1
35,spaced,neutral,0.945328950881958,1
36,spaced,incongruent,0.800485610961914,1
37,spaced,neutral,0.702077865600586,1
38,unspaced,incongruent,0.732864618301392,1
39,unspaced,incongruent,0.69182014465332,1
40,unspaced,congruent,0.754276514053345,1
41,unspaced,neutral,0.679044246673584,1
42,spaced,neutral,0.705576181411743,1
43,unspaced,neutral,0.949449062347412,1
44,spaced,incongruent,1.36873459815979,1
45,spaced,incongruent,1.32609605789185,1
46,spaced,congruent,4.24259996414185,1
47,unspaced,congruent,1.53059267997742,1
48,spaced,congruent,3.86492276191711,1
49,unspaced,neutral,2.73865222930908,1
50,spaced,neutral,0.761097192764282,1
51,spaced,incongruent,0.945143938064575,1
52,spaced,neutral,1.23665308952332,1
53,unspaced,neutral,1.78836679458618,1
54,spaced,congruent,1.90248417854309,1
55,spaced,incongruent,0.555953025817871,1
56,unspaced,incongruent,0.781165361404419,1
57,unspaced,congruent,0.514822244644165,1
58,unspaced,incongruent,0.735466957092285,1
59,spaced,congruent,0.708287477493286,1
60,unspaced,congruent,0.435347080230713,1
